System Initializing...
Keep airflow OFF and system STILL for calibration...
Raw,Delta,Flow,TempC,AccX,AccY,AccZ
1186365,0,0.00,29.0,335,394,367
1186386,0,0.00,29.0,335,394,367
1186421,0,0.00,29.1,334,395,367
1186442,0,0.00,29.0,335,394,367
1186435,0,0.00,28.9,335,394,366
1186509,0,0.00,29.0,335,395,367
1186580,0,0.00,29.0,334,394,367
1186620,0,0.00,29.0,335,395,367
1186709,0,0.00,29.0,335,394,367
1186746,0,0.00,29.0,335,394,367
1186802,0,0.00,29.0,335,395,367
1186884,0,0.00,29.0,334,395,367
1186952,0,0.00,29.0,335,395,367
1187051,0,0.00,29.0,335,395,367
1187126,0,0.00,29.0,334,395,367
1187199,0,0.00,29.0,335,395,367
1187297,0,0.00,29.0,335,394,367
1187354,0,0.00,29.0,334,394,367
1187422,0,0.00,29.0,335,395,367
1187542,0,0.00,29.0,334,395,367
1187663,0,0.00,28.9,334,394,367
1187711,0,0.00,29.0,334,395,367
1187806,0,0.00,29.1,334,394,367
1187930,0,0.00,29.0,334,395,367
1188007,0,0.00,29.0,334,394,367
1188105,0,0.00,29.0,334,394,366
1188221,0,0.00,29.0,334,394,367
1188334,0,0.00,29.0,334,395,367
1188449,0,0.00,29.0,334,395,367
1188604,0,0.00,29.0,334,394,366
1188702,0,0.00,29.0,334,394,367
1188814,0,0.00,29.0,335,395,367
1188875,0,0.00,29.0,334,394,367
1189011,0,0.00,28.9,334,394,366
1189138,0,0.00,29.0,334,394,366
1189210,0,0.00,29.0,334,395,367
1189344,0,0.00,29.1,334,395,367
1189505,0,0.00,29.0,335,394,366
1189645,0,0.00,29.1,334,394,367
1189774,0,0.00,29.0,335,394,367
1189891,0,0.00,29.0,334,394,366
1190010,0,0.00,29.0,335,394,367
1190179,0,0.00,28.9,335,394,366
1190313,0,0.00,29.0,334,395,367
1190399,0,0.00,28.9,334,395,367
1190527,0,0.00,29.0,335,394,366
1190687,0,0.00,29.0,334,395,367
1190830,0,0.00,29.0,334,394,367
1190916,0,0.00,29.0,334,394,367
1191044,0,0.00,29.0,334,394,367
1191194,0,0.00,29.0,335,394,367
1191326,0,0.00,29.0,334,394,367
1191456,0,0.00,29.0,335,395,367
1191582,0,0.00,29.0,334,394,367
1191738,0,0.00,29.0,334,394,367
1191916,0,0.00,29.0,335,395,367
1192084,0,0.00,29.0,334,395,367
1192202,0,0.00,29.0,335,395,367
1192373,0,0.00,29.1,335,394,367
1192496,0,0.00,29.0,334,395,366
1192603,0,0.00,29.1,335,394,367
1192778,0,0.00,29.0,335,394,366
1192931,0,0.00,29.0,334,394,368
1193069,0,0.00,29.0,334,395,366
1193217,0,0.00,29.0,335,395,367
1193352,0,0.00,29.0,334,395,367
1193473,0,0.00,29.0,335,394,367
1193627,0,0.00,29.1,335,395,367
1193789,0,0.00,29.0,335,394,367
1193954,0,0.00,29.1,335,395,367
1194123,0,0.00,29.0,335,394,367
1194283,0,0.00,29.0,335,395,366
1194427,0,0.00,29.1,334,395,367
1194569,0,0.00,28.9,335,394,366
1194694,0,0.00,29.0,334,395,367
1194858,0,0.00,29.0,334,395,366
1195015,0,0.00,29.0,335,394,367
1195157,0,0.00,29.0,334,395,367
1195283,0,0.00,29.1,334,394,367
1195461,0,0.00,29.0,334,394,366
1195600,0,0.00,29.0,335,394,367
1195741,0,0.00,29.1,335,395,366
1195895,0,0.00,29.1,334,394,367
1196010,0,0.00,29.0,334,394,366
1196218,0,0.00,29.0,334,394,366
1196321,0,0.00,29.1,334,394,367
1196481,0,0.00,29.0,335,395,367
1196630,0,0.00,29.0,334,394,366
1196815,0,0.00,29.0,335,394,366
1196943,0,0.00,29.1,335,394,367
1197081,0,0.00,29.0,334,394,366
1197217,0,0.00,29.0,334,394,367
1197402,0,0.00,29.0,335,394,366
1197576,0,0.00,29.0,334,395,367
1197696,0,0.00,29.0,334,394,367
1197807,0,0.00,29.0,334,394,366
1197962,0,0.00,28.9,335,394,367
1198159,0,0.00,29.0,335,394,367
1198314,0,0.00,29.0,334,394,367
1198425,0,0.00,29.0,334,394,367
1198592,0,0.00,29.0,334,394,367
1198761,0,0.00,29.0,335,395,367
1198879,0,0.00,29.0,335,394,367
1199035,0,0.00,29.0,334,395,366
1199186,0,0.00,29.1,334,394,367
1199344,0,0.00,29.0,334,394,366
1199521,0,0.00,29.0,334,395,367
1199675,0,0.00,29.1,335,394,367
1199781,0,0.00,29.0,335,395,367
1199933,0,0.00,29.0,335,395,367
1200098,0,0.00,29.0,335,395,366
1200275,0,0.00,29.0,334,395,367
1200422,0,0.00,29.0,334,394,367
1200601,0,0.00,29.0,335,395,366
1200691,0,0.00,29.0,335,395,366
1200824,0,0.00,29.0,335,395,367
1200972,0,0.00,29.1,335,395,367
1201139,0,0.00,29.0,334,395,367
1201301,0,0.00,29.1,335,394,367
1201405,0,0.00,29.0,335,395,366
1201590,0,0.00,29.0,335,394,367
1201782,0,0.00,29.0,335,395,367
1201935,0,0.00,29.1,334,394,367
1202080,0,0.00,29.1,335,394,367
1202182,0,0.00,29.0,335,394,367
1202339,0,0.00,29.2,334,394,367
1202507,0,0.00,29.0,335,395,367
1202646,0,0.00,29.0,334,395,367
1202813,0,0.00,29.0,335,395,367
1202981,0,0.00,29.0,334,394,366
1203107,0,0.00,29.0,335,394,367
1203255,0,0.00,29.0,335,394,367
1203442,0,0.00,29.0,334,395,367
1203575,0,0.00,29.0,335,395,367
1203760,0,0.00,29.0,335,394,366
1203888,0,0.00,29.0,334,395,366
1204000,0,0.00,29.1,335,394,367
1204175,0,0.00,29.0,334,395,366
1204312,0,0.00,29.1,334,395,367
1204477,0,0.00,29.0,335,394,367
1204594,0,0.00,29.0,335,394,367
1204692,0,0.00,29.0,335,395,367
1204833,0,0.00,29.0,335,394,367
1205010,0,0.00,29.0,334,395,367
1205188,0,0.00,29.0,334,394,367
1205324,0,0.00,29.0,334,395,366
1205453,0,0.00,29.0,335,394,366
1205599,0,0.00,29.0,334,394,367
1205751,0,0.00,29.0,334,395,367
1205920,0,0.00,29.0,334,395,367
1206084,0,0.00,29.0,335,394,367
1206213,0,0.00,29.0,338,398,370
1206332,0,0.00,29.0,336,396,368
1206495,0,0.00,29.0,337,398,370
1206657,0,0.00,29.0,336,396,368
1206787,0,0.00,29.0,336,396,368
1206898,0,0.00,28.9,336,397,369
1207032,0,0.00,28.9,336,397,368
1207167,0,0.00,29.2,336,397,369
1207327,0,0.00,28.1,336,396,368
1207537,0,0.00,28.2,336,396,369
1207394,0,0.00,31.7,338,395,371
1191199,0,0.00,29.1,381,399,367
1123114,63274,7.55,27.7,334,397,368
1073216,113172,10.09,30.2,337,397,368
1074367,112021,9.08,31.2,338,400,370
1116475,69913,8.17,29.7,339,400,371
1177851,8537,7.36,29.9,337,398,369
1199813,0,6.62,30.0,336,396,368
1203844,0,5.96,30.2,336,396,366
1205497,0,5.36,30.2,335,396,366
1206337,0,4.83,30.2,335,395,366
1206789,0,4.34,30.3,334,395,366
1207061,0,3.91,30.3,334,395,367
1207232,0,3.52,30.3,334,395,365
1207308,0,3.17,30.3,334,395,366
1207292,0,2.85,30.4,335,395,366
1207252,0,2.57,30.4,334,394,366
1207266,0,2.31,30.4,334,395,367
1207242,0,2.08,30.3,334,395,365
1207225,0,1.87,30.4,334,395,366
1207233,0,1.68,30.4,335,395,366
1207200,0,1.51,30.4,334,394,366
1207155,0,1.36,30.4,334,395,366
1207117,0,1.23,30.4,334,395,365
1207137,0,1.10,30.4,334,395,366
1207143,0,0.99,30.4,335,395,366
1207146,0,0.89,30.4,334,395,365
1207114,0,0.81,30.4,334,394,366
1207154,0,0.72,30.4,334,394,366
1207202,0,0.65,30.4,334,395,366
1207181,0,0.59,30.4,335,395,366
1207170,0,0.53,30.4,334,395,365
1207211,0,0.48,30.4,334,395,366
1207257,0,0.43,30.4,334,394,365
1207312,0,0.39,30.4,334,395,365
1207352,0,0.35,30.4,334,395,366
1207395,0,0.31,30.4,334,395,366
1207507,0,0.28,30.4,334,395,366
1207517,0,0.25,30.4,334,394,365
1207523,0,0.23,30.4,334,395,365
1207581,0,0.20,30.3,334,395,366
1207638,0,0.18,30.4,334,395,366
1207673,0,0.17,30.4,334,395,366
1207723,0,0.15,30.4,334,394,366
1207854,0,0.13,30.4,335,395,366
1207896,0,0.12,30.4,335,395,366
1207988,0,0.11,30.3,334,395,366
1208073,0,0.10,30.3,335,397,367
1208133,0,0.09,30.4,336,397,368
1208215,0,0.08,30.4,336,397,368
1208280,0,0.07,30.4,336,397,368
1208311,0,0.06,30.3,336,397,367
1208410,0,0.06,30.4,336,397,368
1208536,0,0.05,30.4,336,396,367
1208627,0,0.05,30.4,336,397,367
1208716,0,0.04,30.4,336,397,367
1208838,0,0.04,30.3,335,397,367
1208965,0,0.03,30.3,336,396,368
1209027,0,0.03,30.4,336,397,368
1209095,0,0.03,30.3,336,397,368
1209185,0,0.02,30.4,336,397,367
1209319,0,0.02,30.3,336,397,367
1209435,0,0.02,30.2,337,398,369
1209543,0,0.02,30.3,340,402,372
1209664,0,0.02,30.3,337,399,369
1209761,0,0.01,30.3,337,398,368
1209826,0,0.01,30.3,338,399,369
1209900,0,0.01,30.3,337,398,369
1210027,0,0.01,30.2,337,398,368
1210197,0,0.01,32.2,333,397,369
1210367,0,0.01,29.6,336,398,368
1210516,0,0.01,28.3,336,398,369
1210646,0,0.01,31.5,338,398,368
1210801,0,0.01,30.9,339,396,368
1210928,0,0.01,29.2,337,398,369
1211018,0,0.01,29.7,336,398,368
1211103,0,0.00,30.2,337,397,369
1211190,0,0.00,30.2,336,397,368
1211145,0,0.00,30.1,336,397,368
1211210,0,0.00,30.2,336,397,368
1211341,0,0.00,30.2,336,397,369
1211470,0,0.00,30.1,336,396,368
1211608,0,0.00,30.1,336,397,368
1211720,0,0.00,30.1,336,397,368
1211834,0,0.00,30.1,336,397,368
1211963,0,0.00,30.1,336,396,368
1212104,0,0.00,30.0,336,396,367
1212200,0,0.00,30.2,336,396,368
1212291,0,0.00,30.0,336,397,368
1212441,0,0.00,30.2,335,397,368
1212570,0,0.00,30.0,336,397,368
1212672,0,0.00,30.0,336,397,368
1212780,0,0.00,29.3,335,394,370
1212944,0,0.00,29.1,336,397,368
1213190,0,0.00,32.2,337,397,368
1213379,0,0.00,30.4,336,396,368
1213511,0,0.00,28.6,335,397,365
1213623,0,0.00,30.5,335,397,367
1212960,0,0.00,32.1,337,397,367
1204864,0,0.00,29.4,462,397,367
1184424,1964,1.33,28.5,483,399,366
1163992,22396,4.49,31.4,522,398,366
1156501,29887,5.19,30.3,489,398,366
1155729,30659,5.25,30.4,505,398,366
1183390,2998,4.73,30.4,554,397,365
1212481,0,4.25,30.5,528,398,366
1218253,0,3.83,30.5,501,398,366
1219165,0,3.45,30.6,527,398,365
1219379,0,3.10,30.5,562,398,365
1219366,0,2.79,30.5,515,397,365
1219296,0,2.51,30.5,512,398,365
1219158,0,2.26,30.5,552,398,366
1218930,0,2.04,30.5,551,398,365
1218724,0,1.83,30.5,508,398,366
1218575,0,1.65,30.4,525,397,365
1218433,0,1.48,30.4,569,398,365
1218319,0,1.34,30.5,527,398,365
1218178,0,1.20,30.5,512,398,365
1218012,0,1.08,30.4,545,398,365
1217899,0,0.97,30.5,564,398,365
1217760,0,0.88,30.5,515,398,365
1217659,0,0.79,30.5,521,398,365
1217625,0,0.71,30.5,564,398,365
1217600,0,0.64,30.5,545,397,365
1217553,0,0.57,30.4,512,398,365
1217490,0,0.52,30.4,535,399,366
1217446,0,0.47,30.4,572,399,366
1217467,0,0.42,30.4,524,398,366
1217462,0,0.38,30.4,519,399,366
1217441,0,0.34,30.4,555,398,366
1217472,0,0.31,30.5,560,398,366
1217458,0,0.27,30.4,513,396,364
1217424,0,0.25,30.4,526,396,364
1217440,0,0.22,30.4,570,396,363
1217443,0,0.20,30.4,535,396,363
1217522,0,0.18,30.4,516,396,363
1217522,0,0.16,30.4,544,396,364
1217546,0,0.15,30.4,569,396,364
1217598,0,0.13,30.4,521,396,363
1217648,0,0.12,30.4,522,396,363
1217669,0,0.11,30.4,563,396,364
1217689,0,0.10,30.4,552,396,364
1217698,0,0.09,30.4,515,396,363
1217776,0,0.08,30.4,534,396,363
1217838,0,0.07,30.4,574,396,364
1217938,0,0.06,30.4,529,396,364
1218005,0,0.06,30.4,520,397,364
1218058,0,0.05,30.4,553,395,364
1218124,0,0.05,30.4,564,396,364
1218170,0,0.04,30.4,519,396,364
1218257,0,0.04,30.4,529,395,364
1218297,0,0.03,30.4,570,397,364
1218423,0,0.03,30.4,541,395,363
1218529,0,0.03,30.4,518,396,364
1218578,0,0.02,30.4,542,396,364
1218649,0,0.02,30.4,570,396,364
1218771,0,0.02,30.4,525,396,364
1218847,0,0.02,30.4,524,395,364
1218879,0,0.02,30.4,560,396,363
1218932,0,0.01,30.4,557,396,364
1219024,0,0.01,30.4,517,396,364
1219155,0,0.01,30.4,534,396,364
1219196,0,0.01,30.4,574,396,364
1219274,0,0.01,30.4,532,396,364
1219363,0,0.01,30.4,521,396,364
1219479,0,0.01,30.4,550,396,364
1219626,0,0.01,30.4,567,397,364
1219708,0,0.01,30.4,521,396,363
1219773,0,0.01,30.4,528,396,364
1219855,0,0.01,30.4,567,396,364
1219952,0,0.00,30.4,546,396,364
1220064,0,0.00,30.4,518,396,364
1220172,0,0.00,30.4,539,396,364
1220259,0,0.00,30.4,572,396,364
1220335,0,0.00,30.4,528,396,364
1220451,0,0.00,30.3,524,396,363
1220543,0,0.00,30.3,558,396,364
1220617,0,0.00,30.3,560,396,364
1220759,0,0.00,30.4,519,396,364
1220938,0,0.00,30.4,532,396,364
1221022,0,0.00,30.3,573,396,364
1221028,0,0.00,30.3,536,396,364
1221144,0,0.00,30.3,520,396,364
1221255,0,0.00,30.3,549,396,363
1221398,0,0.00,30.3,569,396,364
1221501,0,0.00,30.3,523,396,364
1221609,0,0.00,30.4,527,396,364
1221693,0,0.00,30.3,565,395,364
1221801,0,0.00,30.4,551,396,364
1221898,0,0.00,30.3,518,396,364
1222087,0,0.00,30.3,538,396,363
1222194,0,0.00,30.3,575,396,364
1222254,0,0.00,30.3,530,395,363
1222347,0,0.00,30.3,523,396,364
1222462,0,0.00,30.4,557,396,364
1222572,0,0.00,30.3,564,396,364
1222666,0,0.00,30.3,519,396,364
1222782,0,0.00,30.2,531,395,364
1222879,0,0.00,30.2,572,396,364
1222972,0,0.00,30.2,540,396,364
1223099,0,0.00,30.3,518,396,364
1223213,0,0.00,30.3,545,396,364
1223270,0,0.00,30.2,572,396,363
1223391,0,0.00,30.2,524,396,363
1223409,0,0.00,30.2,524,396,364
1223328,0,0.00,30.1,564,396,364
1223302,0,0.00,30.4,556,396,364
1223461,0,0.00,30.8,522,396,364
1223848,0,0.00,29.3,520,395,363
1224174,0,0.00,31.2,557,396,363
1224565,0,0.00,32.7,554,396,364
1224916,0,0.00,30.1,534,395,364
1225106,0,0.00,29.4,534,396,363
1225461,0,0.00,32.2,576,396,364
1225917,0,0.00,31.1,531,396,364
1226125,0,0.00,31.1,539,396,363
1226090,0,0.00,31.1,581,395,364
1226088,0,0.00,31.4,553,396,363
1226100,0,0.00,31.2,527,396,363
1226130,0,0.00,31.3,553,396,363
1226099,0,0.00,31.3,582,396,364
1226098,0,0.00,31.2,534,396,363
1226160,0,0.00,31.3,533,396,363
1226207,0,0.00,31.3,572,395,364
1226236,0,0.00,31.3,567,396,364
1226278,0,0.00,31.3,526,396,363
1226340,0,0.00,31.3,543,396,363
1226373,0,0.00,31.3,586,396,364
1226479,0,0.00,31.1,541,397,364
1226544,0,0.00,31.3,529,397,364
1226628,0,0.00,31.2,562,396,364
1226668,0,0.00,31.3,578,397,364
1226733,0,0.00,31.2,530,397,365
1226838,0,0.00,31.2,537,397,365
1226920,0,0.00,31.3,580,397,365
1227000,0,0.00,31.2,555,397,365
1227057,0,0.00,31.2,526,398,365
1227173,0,0.00,31.1,551,398,365
1227251,0,0.00,31.3,585,398,366
1227306,0,0.00,32.4,534,398,366
1227352,0,0.00,30.4,531,398,365
1227310,0,0.00,30.0,542,398,365
1227241,0,0.00,33.6,576,398,365
1227241,0,0.00,31.8,548,397,366
1227371,0,0.00,30.1,535,398,365
1227542,0,0.00,31.3,568,398,365
1227757,0,0.00,33.8,567,397,365
1227985,0,0.00,31.1,545,398,366
1228951,0,0.00,30.2,544,397,365
1230545,0,0.00,33.3,576,398,365
1231570,0,0.00,32.8,557,398,365
1232010,0,0.00,31.0,541,397,365
1232034,0,0.00,31.1,557,398,365
1231937,0,0.00,32.2,565,397,365
1231770,0,0.00,32.2,539,398,365
1231532,0,0.00,32.2,562,398,365
1231376,0,0.00,32.3,592,398,365
1231243,0,0.00,32.2,544,397,365
1231136,0,0.00,32.3,541,397,365
1231054,0,0.00,32.3,578,397,365
1230948,0,0.00,32.3,574,398,365
1230871,0,0.00,32.4,533,397,365
1230835,0,0.00,32.3,548,397,364
1230817,0,0.00,32.3,590,397,365
1230795,0,0.00,32.4,546,397,365
1230822,0,0.00,32.3,533,398,365
1230796,0,0.00,32.2,564,397,365
1230800,0,0.00,32.3,579,397,365
1230859,0,0.00,32.2,533,397,365
1230880,0,0.00,32.3,539,397,365
1230925,0,0.00,32.1,580,397,366
1230720,0,0.00,32.1,556,398,365
1230049,0,0.00,32.1,528,397,364
1229727,0,0.00,32.1,551,397,365
1230279,0,0.00,32.0,580,397,365
1231107,0,0.00,31.9,535,397,365
1231422,0,0.00,31.8,531,397,364
1232355,0,0.00,31.8,567,397,365
1233601,0,0.00,31.7,565,397,365
1233815,0,0.00,31.7,524,397,365
1233742,0,0.00,31.8,538,397,364
1233580,0,0.00,31.6,580,397,365
1233333,0,0.00,31.5,538,397,365
1232991,0,0.00,31.5,525,397,365
1232606,0,0.00,31.5,556,397,364
1231888,0,0.00,31.4,572,397,365
1231576,0,0.00,31.4,526,397,365
1232873,0,0.00,31.3,532,397,365
1234353,0,0.00,31.3,574,397,365
1234976,0,0.00,31.3,550,397,364
1235346,0,0.00,31.2,523,397,365
1235412,0,0.00,31.3,547,398,365
1235261,0,0.00,31.1,577,397,365
1235056,0,0.00,31.1,531,397,365
1234864,0,0.00,31.1,529,397,365
1234580,0,0.00,31.1,567,397,365
1233404,0,0.00,31.1,563,398,365
1232001,0,0.00,31.0,522,397,365
1232045,0,0.00,31.1,539,397,365
1232649,0,0.00,31.0,581,397,365
1233557,0,0.00,31.0,537,397,365
1234692,0,0.00,30.9,525,397,365
1235725,0,0.00,30.9,558,397,364
1236548,0,0.00,30.8,572,397,364
1237106,0,0.00,30.8,524,397,365
1237304,0,0.00,30.9,532,397,365
1237210,0,0.00,30.8,575,397,365
1237035,0,0.00,30.8,547,397,365
1236813,0,0.00,30.7,522,397,365
1236535,0,0.00,30.6,548,397,365
1236309,0,0.00,30.6,577,397,364
1236093,0,0.00,30.6,529,397,365
1235888,0,0.00,30.6,527,397,365
1235491,0,0.00,30.6,567,397,365
1235163,0,0.00,30.6,561,397,365
1235027,0,0.00,30.5,520,396,364
1235154,0,0.00,30.5,538,397,364
1235243,0,0.00,30.4,580,397,365
1235338,0,0.00,30.4,534,397,365
1235349,0,0.00,30.4,523,397,365
1235300,0,0.00,30.3,557,397,365
1235204,0,0.00,30.5,569,397,365
1235122,0,0.00,30.4,521,397,365
1235068,0,0.00,30.5,530,397,365
1235006,0,0.00,30.0,535,397,364
1234971,0,0.00,32.7,556,397,365
1234778,0,0.00,29.9,531,397,365
1232917,0,0.00,27.6,522,397,365
1228186,0,0.00,31.6,559,397,365
1221803,0,0.00,31.6,547,397,365
1217187,0,0.00,29.9,531,397,365
1213622,0,0.00,29.7,539,397,365
1211017,0,0.00,33.5,570,397,365
1212056,0,0.00,31.5,543,397,365
1214669,0,0.00,29.5,532,397,365
1215847,0,0.00,32.0,565,397,365
1216295,0,0.00,33.7,560,397,364
1220457,0,0.00,31.1,542,397,365
1229724,0,0.00,30.4,544,398,364
1236958,0,0.00,33.5,575,397,365
1240715,0,0.00,32.8,555,397,365
1242689,0,0.00,32.1,552,397,365
1243933,0,0.00,32.2,591,397,364
1244113,0,0.00,32.3,558,397,365
1243609,0,0.00,32.4,536,397,364
1242997,0,0.00,32.4,563,398,365
1242399,0,0.00,32.4,589,396,365
1241894,0,0.00,32.5,542,397,365
1241322,0,0.00,32.5,544,397,365
1240821,0,0.00,32.5,583,397,364
1240375,0,0.00,32.5,573,397,365
1239997,0,0.00,32.5,536,397,364
1239656,0,0.00,32.6,555,397,364
1239311,0,0.00,32.4,594,397,364
1238966,0,0.00,32.5,548,397,365
1238654,0,0.00,32.4,540,397,365
1238363,0,0.00,32.5,574,397,364
1238103,0,0.00,32.4,583,397,364
1237892,0,0.00,32.4,537,397,364
1237695,0,0.00,32.4,548,397,365
1237510,0,0.00,32.4,591,397,364
1237363,0,0.00,32.3,557,397,364
1237190,0,0.00,32.3,537,397,365
1237016,0,0.00,32.3,564,397,365
1236879,0,0.00,32.3,589,396,365
1236759,0,0.00,32.4,542,397,365
1236669,0,0.00,32.3,544,397,365
1236550,0,0.00,32.3,582,397,364
1236451,0,0.00,32.3,569,397,365
1236374,0,0.00,32.3,535,396,364
1236288,0,0.00,32.3,555,398,365
1236237,0,0.00,32.3,592,398,366
1236213,0,0.00,32.3,547,399,366
1236132,0,0.00,32.2,540,398,366
1236080,0,0.00,32.3,575,399,365
1235984,0,0.00,32.3,581,398,366
1235929,0,0.00,32.2,537,398,366
1235972,0,0.00,32.2,549,398,366
1235958,0,0.00,32.2,591,398,365
1235924,0,0.00,32.3,555,398,365
1235914,0,0.00,32.2,537,398,366
1235905,0,0.00,32.2,566,398,366
1235876,0,0.00,32.2,587,398,366
1235861,0,0.00,32.2,540,398,366
1235922,0,0.00,32.3,545,398,366
1235897,0,0.00,32.2,584,398,366
1235858,0,0.00,32.2,566,398,366
1235878,0,0.00,32.2,535,399,365
1235917,0,0.00,32.1,556,398,366
1235963,0,0.00,32.1,591,399,366
1235999,0,0.00,32.1,545,398,366
1236026,0,0.00,32.2,540,398,365
1236044,0,0.00,32.1,577,398,366
1236104,0,0.00,32.1,579,398,366
1236140,0,0.00,32.1,535,398,366
1236165,0,0.00,32.1,550,398,365
1236166,0,0.00,32.1,592,398,366
1236173,0,0.00,32.1,552,399,366
1236195,0,0.00,32.0,537,398,366
1236298,0,0.00,32.0,568,398,366
1236410,0,0.00,32.0,586,398,365
1236453,0,0.00,32.0,539,398,366
1236482,0,0.00,32.0,545,398,366
1236526,0,0.00,32.0,587,397,365
1236566,0,0.00,32.1,563,398,366
1236623,0,0.00,32.0,535,398,365
1236660,0,0.00,32.0,558,398,365
1236720,0,0.00,32.0,590,398,366
1236761,0,0.00,31.9,543,398,365
1236806,0,0.00,32.0,540,398,366
1236882,0,0.00,31.9,579,398,366
1236954,0,0.00,32.0,576,398,365
1237075,0,0.00,31.9,534,398,366
1237129,0,0.00,32.0,552,398,365
1237181,0,0.00,31.9,594,398,365
1237206,0,0.00,32.0,550,398,366
1237268,0,0.00,31.9,538,398,365
1237388,0,0.00,31.8,571,398,365
1237439,0,0.00,31.9,584,398,366
1237509,0,0.00,31.8,537,397,366
1237576,0,0.00,31.9,546,397,365
1237655,0,0.00,31.8,589,398,365
1237728,0,0.00,31.8,559,398,365
1237807,0,0.00,31.9,535,398,365
1237848,0,0.00,31.9,562,398,365
1237921,0,0.00,31.8,589,398,365
1238001,0,0.00,31.9,541,398,366
1238087,0,0.00,31.8,541,397,365
1238204,0,0.00,31.8,581,398,366
1238274,0,0.00,31.8,572,398,365
1238330,0,0.00,31.8,533,398,365
1238404,0,0.00,31.8,553,398,366
1238531,0,0.00,31.8,592,398,365
1238610,0,0.00,31.8,547,398,365
1238621,0,0.00,31.8,538,398,365
1238720,0,0.00,31.8,572,398,365
1238796,0,0.00,31.8,582,398,366
1238909,0,0.00,31.8,535,398,365
1239024,0,0.00,31.8,546,398,365
1239069,0,0.00,31.8,589,398,366
1239152,0,0.00,31.7,557,398,365
1239226,0,0.00,31.8,534,398,366
1239295,0,0.00,31.7,562,398,365
1239372,0,0.00,31.8,588,398,365
1239454,0,0.00,31.8,540,398,366
1239548,0,0.00,31.7,540,398,365
1239609,0,0.00,31.7,581,398,365
1239711,0,0.00,31.7,571,397,365
1239794,0,0.00,31.7,532,398,365
1239894,0,0.00,31.8,553,398,365
1240011,0,0.00,31.7,591,398,365
1240100,0,0.00,31.6,545,397,366
1240174,0,0.00,31.7,537,398,365
1240277,0,0.00,31.7,572,398,366
1240383,0,0.00,31.7,580,398,366
1240469,0,0.00,31.6,534,398,366
1240500,0,0.00,31.6,546,398,366
1240587,0,0.00,31.7,589,398,365
1240743,0,0.00,31.6,554,398,365
1240853,0,0.00,31.6,534,398,366
1240917,0,0.00,31.7,563,397,365
1240971,0,0.00,31.6,587,398,366
1241056,0,0.00,31.6,538,398,365
1241164,0,0.00,31.6,541,398,366
1241231,0,0.00,31.6,581,398,365
1241307,0,0.00,31.6,568,397,366
1241421,0,0.00,31.6,532,398,365
1241531,0,0.00,31.6,552,398,365
1241636,0,0.00,31.6,591,398,365
1241698,0,0.00,31.5,543,399,366
1241770,0,0.00,31.6,536,398,365
1241882,0,0.00,31.6,572,398,365
1241938,0,0.00,31.5,579,398,366
1242013,0,0.00,31.5,533,398,365
1242120,0,0.00,31.6,545,398,366
1242212,0,0.00,31.5,589,398,365
1242295,0,0.00,31.6,552,398,366
1242377,0,0.00,31.5,533,398,365
1242473,0,0.00,31.5,563,398,365
1242567,0,0.00,31.5,585,398,365
1242645,0,0.00,31.5,536,398,366
1242753,0,0.00,31.5,539,397,365
1242815,0,0.00,31.5,581,398,366
1242897,0,0.00,31.5,565,398,366
1242974,0,0.00,31.4,531,398,365
1243077,0,0.00,31.5,552,397,365
1243168,0,0.00,31.4,589,398,365
1243264,0,0.00,31.4,541,398,365
1243347,0,0.00,31.4,535,398,366
1243448,0,0.00,31.4,573,398,366
1243500,0,0.00,31.4,577,397,365
1243587,0,0.00,31.3,531,398,366
1243690,0,0.00,31.3,546,398,366
1243810,0,0.00,31.3,590,398,365
1243914,0,0.00,31.5,549,398,366
1243978,0,0.00,31.4,531,397,365
1244064,0,0.00,31.4,562,398,366
1244191,0,0.00,31.3,583,398,365
1244273,0,0.00,31.3,533,398,366
1244314,0,0.00,31.2,539,398,366
1244396,0,0.00,31.3,582,398,365
1244513,0,0.00,31.3,560,398,365
1244581,0,0.00,31.3,529,398,365
1244680,0,0.00,31.4,553,398,365
1244772,0,0.00,31.2,587,398,366
1244866,0,0.00,31.3,538,398,365
1244975,0,0.00,31.2,535,398,365
1245044,0,0.00,31.2,573,398,365
1245127,0,0.00,31.2,572,398,365
1245243,0,0.00,31.2,529,398,366
1245321,0,0.00,31.2,546,398,365
1245444,0,0.00,31.2,589,398,366
1245533,0,0.00,31.2,545,398,366
1245617,0,0.00,31.2,532,398,365
1245709,0,0.00,31.2,564,398,366
1245763,0,0.00,31.1,580,398,365
1245836,0,0.00,31.2,532,398,365
1245921,0,0.00,31.2,541,398,365
1246014,0,0.00,31.2,583,397,365
1246135,0,0.00,31.1,555,398,365
1246226,0,0.00,31.2,530,398,365
1246305,0,0.00,31.1,555,398,365
1246366,0,0.00,31.2,584,398,366
1246437,0,0.00,31.1,537,397,365
1246554,0,0.00,31.2,536,398,366
1246650,0,0.00,31.1,575,398,366
1246720,0,0.00,31.1,567,398,366
1246825,0,0.00,31.1,528,397,366
1246898,0,0.00,31.2,548,397,365
1246989,0,0.00,31.1,587,398,365
1247058,0,0.00,31.2,542,398,366
1247145,0,0.00,31.0,533,398,365
1247251,0,0.00,31.1,566,397,366
1247356,0,0.00,31.1,577,398,365
1247476,0,0.00,31.1,531,398,366
1247560,0,0.00,31.0,541,398,365
1247633,0,0.00,31.1,583,398,366
1247706,0,0.00,31.1,552,397,366
1247787,0,0.00,31.1,530,398,365
1247898,0,0.00,31.0,557,398,365
1247996,0,0.00,31.1,582,398,365
1248083,0,0.00,31.0,534,398,365
1248169,0,0.00,31.0,536,397,366
1248231,0,0.00,31.0,575,398,365
1248277,0,0.00,31.1,563,398,366
1248401,0,0.00,31.0,528,398,366
1248467,0,0.00,31.0,547,397,366
1248525,0,0.00,31.0,584,398,365
1248664,0,0.00,31.0,539,398,365
1248778,0,0.00,31.0,532,398,366
1248875,0,0.00,31.0,567,398,365
1248958,0,0.00,31.0,572,397,365
1249026,0,0.00,31.0,528,398,365
1249104,0,0.00,31.0,541,398,365
1249191,0,0.00,30.9,583,398,365
1249293,0,0.00,31.1,546,398,365
1249352,0,0.00,30.9,529,397,365
1249434,0,0.00,30.9,559,398,366
1249530,0,0.00,30.9,578,398,365
1249643,0,0.00,31.0,531,398,365
1249741,0,0.00,30.9,536,397,366
1249836,0,0.00,30.9,577,398,364
1249952,0,0.00,30.9,557,398,365
1250005,0,0.00,30.9,527,398,365
1250041,0,0.00,30.9,548,398,365
1250146,0,0.00,30.9,583,398,366
1250277,0,0.00,31.0,536,398,365
1250360,0,0.00,30.9,533,398,365
1250456,0,0.00,30.9,570,398,365
1250472,0,0.00,30.9,568,398,366
1250563,0,0.00,30.9,526,398,366
1250673,0,0.00,30.8,542,398,365
1250756,0,0.00,30.9,584,398,366
1250836,0,0.00,30.9,541,398,366
1250947,0,0.00,30.8,529,398,365
1251054,0,0.00,30.8,561,398,366
1251097,0,0.00,30.9,575,398,365
1251178,0,0.00,30.8,529,398,366
1251229,0,0.00,30.8,537,398,365
1251345,0,0.00,30.8,579,398,366
1251438,0,0.00,30.9,551,397,365
1251531,0,0.00,30.9,527,398,365
1251638,0,0.00,30.8,553,398,365
1251709,0,0.00,30.9,580,398,365
1251781,0,0.00,30.8,533,397,366
1251851,0,0.00,30.8,533,397,366
1251948,0,0.00,30.8,572,398,365
1252034,0,0.00,30.8,563,398,365
1252098,0,0.00,30.8,526,398,365
1252185,0,0.00,30.8,545,398,365
1252278,0,0.00,30.8,584,397,366
1252380,0,0.00,30.8,538,398,365
1252499,0,0.00,30.8,530,398,365
1252574,0,0.00,30.8,565,398,365
1252615,0,0.00,30.8,572,397,366
1252702,0,0.00,30.8,527,397,366
1252821,0,0.00,30.7,539,398,365
1252913,0,0.00,30.7,582,397,365
1252986,0,0.00,30.8,545,398,366
1253036,0,0.00,30.8,527,398,366
1253115,0,0.00,30.6,557,398,365
1253236,0,0.00,30.8,578,398,365
1253311,0,0.00,30.7,530,398,365
1253386,0,0.00,30.8,535,398,365
1253436,0,0.00,30.7,576,398,365
1253518,0,0.00,30.8,556,398,365
1253609,0,0.00,30.7,526,398,365
1253704,0,0.00,30.8,549,398,365
1253789,0,0.00,30.8,582,398,366
1253859,0,0.00,30.7,535,397,366
1253925,0,0.00,30.7,531,398,366
1254021,0,0.00,30.7,569,398,365
1254130,0,0.00,30.8,567,398,365
1254195,0,0.00,30.7,525,398,365
1254255,0,0.00,30.7,541,398,365
1254344,0,0.00,30.7,584,398,365
1254464,0,0.00,30.7,539,398,365
1254556,0,0.00,30.7,528,398,365
1254630,0,0.00,30.7,561,398,365
1254737,0,0.00,30.6,574,397,365
1254817,0,0.00,30.6,527,397,366
1254876,0,0.00,30.7,537,398,364
1254969,0,0.00,30.7,579,397,365
1255077,0,0.00,30.7,549,398,365
1255135,0,0.00,30.7,525,398,365
1255212,0,0.00,30.7,554,398,366
1255276,0,0.00,30.7,579,398,365
1255361,0,0.00,30.7,532,398,365
1255460,0,0.00,30.7,533,398,365
1255561,0,0.00,30.7,572,397,366
1255623,0,0.00,30.7,559,398,365
1255721,0,0.00,30.6,525,398,365
1255796,0,0.00,30.6,544,397,365
1255899,0,0.00,30.6,582,398,366
1255959,0,0.00,30.7,535,397,365
1256039,0,0.00,30.6,529,398,365
1256133,0,0.00,30.6,565,398,365
1256214,0,0.00,30.6,569,398,365
1256298,0,0.00,30.6,525,398,365
1256370,0,0.00,30.6,539,398,365
1256469,0,0.00,30.5,582,398,365
1256551,0,0.00,30.7,542,398,365
1256618,0,0.00,30.6,527,397,365
1256699,0,0.00,30.6,557,398,365
1256795,0,0.00,30.6,576,397,365
1256872,0,0.00,30.6,528,398,365
1256924,0,0.00,30.5,535,398,365
1257009,0,0.00,30.6,577,397,365
1257111,0,0.00,30.6,553,398,366
1257189,0,0.00,30.6,525,397,365
1257249,0,0.00,30.4,549,397,365
1257340,0,0.00,30.6,580,398,365
1257424,0,0.00,30.6,533,398,365
1257478,0,0.00,30.6,531,398,366
1257588,0,0.00,30.6,570,397,365
1257665,0,0.00,30.5,564,398,365
1257783,0,0.00,30.5,525,398,366
1257846,0,0.00,30.5,542,398,365
1257936,0,0.00,30.5,583,398,366
1258008,0,0.00,30.6,537,397,365
1258078,0,0.00,30.6,528,398,365
1258120,0,0.00,30.5,563,398,365
1258208,0,0.00,30.6,572,397,366
1258299,0,0.00,30.6,526,397,365
1258395,0,0.00,30.5,538,398,365
1258468,0,0.00,30.5,581,398,365
1258557,0,0.00,30.5,546,398,365
1258649,0,0.00,30.5,526,397,365
1258728,0,0.00,30.6,556,397,366
1258845,0,0.00,30.5,577,398,365
1258906,0,0.00,30.5,530,398,365
1258962,0,0.00,30.5,534,398,365
1259063,0,0.00,30.5,575,397,365
1259162,0,0.00,30.5,555,398,365
1259219,0,0.00,30.5,524,398,365
1259288,0,0.00,30.5,548,397,365
1259334,0,0.00,30.5,581,398,366
1259404,0,0.00,30.5,534,397,365
1259486,0,0.00,30.5,531,398,365
1259571,0,0.00,30.5,569,398,365
1259653,0,0.00,30.5,566,397,365
1259738,0,0.00,30.5,524,398,366
1259840,0,0.00,30.4,542,397,365
1259941,0,0.00,30.5,584,398,365
1260002,0,0.00,30.5,540,398,366
1260075,0,0.00,30.5,528,398,365
1260151,0,0.00,30.4,561,398,365
1260250,0,0.00,30.5,574,397,365
1260322,0,0.00,30.5,526,398,365
1260385,0,0.00,30.5,537,397,366
1260435,0,0.00,30.5,580,398,365
1260571,0,0.00,30.5,548,398,366
1260651,0,0.00,30.5,526,397,365
1260701,0,0.00,30.4,554,397,365
1260858,0,0.00,30.5,579,398,365
1260932,0,0.00,30.5,530,398,365
1261001,0,0.00,30.5,533,398,366
1261048,0,0.00,30.5,574,397,365
1261143,0,0.00,30.5,558,398,365
1261185,0,0.00,30.5,525,398,365
1261261,0,0.00,30.5,545,397,365
1261351,0,0.00,30.4,582,398,365
1261438,0,0.00,30.5,535,398,365
1261527,0,0.00,30.5,530,398,365
1261639,0,0.00,30.5,567,398,365
1261695,0,0.00,30.5,568,398,365
1261774,0,0.00,30.5,525,398,365
1261851,0,0.00,30.4,540,397,365
1261907,0,0.00,30.4,583,397,365
1262003,0,0.00,30.4,540,398,365
1262076,0,0.00,30.4,527,397,366
1262171,0,0.00,30.5,559,398,365
1262239,0,0.00,30.4,574,398,365
1262269,0,0.00,30.4,527,398,365
1262403,0,0.00,30.4,535,398,365
1262490,0,0.00,30.4,578,397,365
1262558,0,0.00,30.4,550,397,366
1262611,0,0.00,30.4,524,397,365
1262693,0,0.00,30.4,552,398,365
1262740,0,0.00,30.4,579,398,365
1262808,0,0.00,30.4,531,397,365
1262897,0,0.00,30.4,532,397,366
1262966,0,0.00,30.4,572,398,365
1263075,0,0.00,30.5,560,398,365
1263172,0,0.00,30.4,524,398,365
1263278,0,0.00,30.5,544,398,365
1263329,0,0.00,30.4,582,398,366
1263406,0,0.00,30.4,535,398,365
1263484,0,0.00,30.4,529,397,365
1263537,0,0.00,30.4,565,398,365
1263601,0,0.00,30.4,569,397,366
1263691,0,0.00,30.4,524,398,365
1263786,0,0.00,30.4,540,398,365
1263845,0,0.00,30.4,583,398,365
1263894,0,0.00,30.4,540,398,365
1263988,0,0.00,30.4,526,397,365
1264072,0,0.00,30.4,559,397,365
1264133,0,0.00,30.4,574,398,365
1264216,0,0.00,30.4,527,397,365
1264332,0,0.00,30.4,535,397,366
1264421,0,0.00,30.4,578,397,365
1264474,0,0.00,30.4,550,398,365
1264539,0,0.00,30.4,524,397,365
1264598,0,0.00,30.4,551,398,365
1264673,0,0.00,30.4,578,398,366
1264764,0,0.00,30.4,531,398,365
1264820,0,0.00,30.4,532,397,366
1264885,0,0.00,30.4,572,398,366
1264984,0,0.00,30.4,560,398,365
1265063,0,0.00,30.4,523,398,366
1265106,0,0.00,30.4,544,397,364
1265186,0,0.00,30.4,582,398,365
1265294,0,0.00,30.4,535,398,365
1265431,0,0.00,30.4,529,397,365
1265502,0,0.00,30.4,565,397,365
1265566,0,0.00,30.4,568,398,365
1265617,0,0.00,30.4,524,398,365
1265676,0,0.00,30.4,539,398,365
1265766,0,0.00,30.4,582,397,365
1265826,0,0.00,30.4,540,398,365
1265895,0,0.00,30.4,526,397,365
1265994,0,0.00,30.3,558,398,365
1266095,0,0.00,30.4,574,398,365
1266158,0,0.00,30.4,527,397,366
1266195,0,0.00,30.4,535,397,365
1266305,0,0.00,30.4,578,398,365
1266391,0,0.00,30.4,549,397,365
1266427,0,0.00,30.4,524,398,365
1266532,0,0.00,30.4,552,397,365
1266626,0,0.00,30.4,578,398,365
1266704,0,0.00,30.4,530,398,365
1266782,0,0.00,30.3,531,397,365
1266878,0,0.00,30.4,572,398,365
1266917,0,0.00,30.4,559,397,365
1266956,0,0.00,30.4,523,398,365
1267069,0,0.00,30.4,545,397,365
1267145,0,0.00,30.4,581,398,365
1267195,0,0.00,30.4,534,397,365
1267276,0,0.00,30.4,529,398,365
1267362,0,0.00,30.4,566,398,365
1267412,0,0.00,30.4,568,398,365
1267500,0,0.00,30.4,523,398,365
1267595,0,0.00,30.4,540,398,366
1267665,0,0.00,30.4,582,398,365
1267730,0,0.00,30.4,539,398,365
1267822,0,0.00,30.4,526,398,365
1267934,0,0.00,30.4,558,398,365
1267971,0,0.00,30.4,573,397,366
1268012,0,0.00,30.4,526,398,365
1268095,0,0.00,30.4,535,397,366
1268211,0,0.00,30.4,578,398,365
1268286,0,0.00,30.4,548,397,365
1268348,0,0.00,30.4,523,398,366
1268370,0,0.00,30.4,552,398,365
1268403,0,0.00,30.4,579,398,365
1268521,0,0.00,30.4,530,398,365
1268637,0,0.00,30.4,531,398,366
1268703,0,0.00,30.3,573,398,366
1268762,0,0.00,30.3,558,398,365
1268816,0,0.00,30.4,522,398,365
1268877,0,0.00,30.4,544,398,365
1268939,0,0.00,30.4,583,397,365
1269048,0,0.00,30.3,534,398,365
1269116,0,0.00,30.4,528,398,365
1269186,0,0.00,30.3,567,398,365
1269288,0,0.00,30.4,568,398,366
1269375,0,0.00,30.4,522,397,365
1269436,0,0.00,30.4,538,398,365
1269476,0,0.00,30.3,585,397,365
1269597,0,0.00,30.3,538,397,366
1269667,0,0.00,30.3,524,398,366
1269700,0,0.00,30.3,560,397,365
1269773,0,0.00,30.3,575,398,365
1269864,0,0.00,30.4,516,398,366
1269965,0,0.00,29.0,522,400,368
1267746,0,0.00,29.3,546,406,364
1239811,0,0.00,33.0,564,398,363
1184393,1995,1.34,30.1,537,398,363
1189309,0,1.21,30.5,558,398,364
1246319,0,1.09,30.8,585,399,363
1266392,0,0.98,31.0,534,399,364
1269271,0,0.88,30.9,537,398,363
1270194,0,0.79,31.0,581,399,363
1270583,0,0.71,31.0,561,399,363
1270760,0,0.64,31.0,528,398,363
1270771,0,0.58,31.0,552,398,364
1270792,0,0.52,31.0,587,399,363
1270759,0,0.47,31.0,537,398,363
1270686,0,0.42,31.0,535,399,363
1270577,0,0.38,31.1,576,398,363
1270482,0,0.34,31.0,570,399,363
1270435,0,0.31,31.1,528,399,362
1270347,0,0.28,31.0,548,399,363
1270265,0,0.25,31.1,591,399,363
1270252,0,0.22,31.2,542,398,363
1270222,0,0.20,31.1,533,399,363
1270169,0,0.18,31.1,571,399,364
1270152,0,0.16,31.1,578,399,364
1270126,0,0.15,31.1,530,398,363
1270089,0,0.13,31.0,544,399,363
1270054,0,0.12,31.0,590,399,363
1270038,0,0.11,31.1,548,399,364
1269997,0,0.10,31.0,532,399,364
1270033,0,0.09,31.1,565,399,364
1270040,0,0.08,31.0,583,399,364
1269981,0,0.07,31.0,532,400,364
1269987,0,0.06,31.1,540,400,364
1270025,0,0.06,31.0,597,399,363
1270009,0,0.05,31.1,572,397,367
1269880,0,0.05,31.0,537,402,360
1269855,0,0.04,31.0,576,398,364
1269902,0,0.04,31.1,607,399,365
1269822,0,0.03,30.9,523,400,369
1269777,0,0.03,31.0,339,398,369
1269726,0,0.03,30.9,345,396,367
1269706,0,0.02,31.1,338,396,369
1269729,0,0.02,31.0,338,397,370
1269767,0,0.02,31.0,338,396,368
1269795,0,0.02,31.0,339,396,369
1269965,0,0.02,31.0,338,397,369
1270152,0,0.01,31.0,338,396,369
1270230,0,0.01,30.9,338,397,369
1270299,0,0.01,31.0,339,396,369
1270334,0,0.01,31.0,337,396,368
1270369,0,0.01,30.9,337,396,368
1270436,0,0.01,30.9,337,394,368
1270518,0,0.01,30.8,337,395,367
1270551,0,0.01,31.0,337,394,368
1270578,0,0.01,30.8,337,395,368
1270588,0,0.01,30.9,338,396,369
1270629,0,0.01,31.0,342,400,372
1270662,0,0.00,30.9,339,397,370
1270722,0,0.00,30.9,341,399,372
1270816,0,0.00,30.9,340,398,371
1270880,0,0.00,30.9,340,398,371
1270905,0,0.00,30.8,339,397,369
1270941,0,0.00,31.0,339,397,370
1271040,0,0.00,31.0,339,397,369
1271092,0,0.00,30.9,339,397,369
1271141,0,0.00,30.9,340,397,370
1271193,0,0.00,31.0,339,397,369
1271206,0,0.00,31.0,340,398,370
1271309,0,0.00,31.0,341,399,372
1271378,0,0.00,30.9,339,396,369
1271442,0,0.00,30.9,339,397,370
1271512,0,0.00,30.9,340,398,370
1271549,0,0.00,30.9,340,398,371
1271607,0,0.00,30.9,341,399,372
1271660,0,0.00,30.9,340,398,371
1271721,0,0.00,31.0,340,399,371
1271788,0,0.00,30.9,341,400,372
1271847,0,0.00,31.0,342,399,372
1271957,0,0.00,30.9,341,399,371
1272015,0,0.00,30.9,341,399,372
1272049,0,0.00,30.9,341,400,373
1272120,0,0.00,30.8,341,399,373
1272186,0,0.00,30.8,340,398,371
1272292,0,0.00,30.8,340,398,370
1272345,0,0.00,30.9,339,396,369
1272370,0,0.00,30.9,338,396,369
1272448,0,0.00,30.8,339,396,370
1272525,0,0.00,30.9,339,397,369
1272601,0,0.00,30.9,339,397,370
1272671,0,0.00,30.7,339,398,370
1272748,0,0.00,30.8,339,397,370
1272799,0,0.00,30.8,339,397,370
1272871,0,0.00,30.8,339,397,369
1272949,0,0.00,30.8,339,397,370
1273028,0,0.00,30.8,339,397,370
1273085,0,0.00,30.8,339,396,369
1273113,0,0.00,30.8,339,397,370
1273177,0,0.00,30.8,339,397,369
1273285,0,0.00,30.8,338,397,369
1273389,0,0.00,30.8,339,397,370
1273448,0,0.00,30.8,339,397,369
1273517,0,0.00,30.8,338,397,370
1273602,0,0.00,30.8,339,396,369
1273653,0,0.00,30.8,338,397,369
1273723,0,0.00,30.8,339,397,370
1273783,0,0.00,30.8,339,397,369
1273900,0,0.00,30.8,339,397,370
1273926,0,0.00,30.7,339,397,370
1274009,0,0.00,30.8,339,397,370
1274083,0,0.00,30.8,339,397,369
1274174,0,0.00,30.8,339,397,369
1274247,0,0.00,30.7,339,397,370
1274317,0,0.00,30.8,339,397,370
1274445,0,0.00,30.7,338,396,369
1274509,0,0.00,30.8,338,396,369
1274523,0,0.00,30.7,338,396,369
1274638,0,0.00,30.8,338,396,369
1274716,0,0.00,30.7,338,397,369
1274780,0,0.00,30.8,339,396,369
1274883,0,0.00,30.7,338,396,369
1274943,0,0.00,30.8,339,396,370
1274991,0,0.00,30.7,338,396,369
1275040,0,0.00,30.7,338,396,369
1275108,0,0.00,30.6,338,396,369
1275192,0,0.00,30.7,339,396,369
1275292,0,0.00,30.7,339,396,369
1275324,0,0.00,30.6,338,396,368
1275370,0,0.00,30.7,338,396,369
1275473,0,0.00,30.7,338,397,368
1275542,0,0.00,30.6,338,396,369
1275639,0,0.00,30.6,339,397,369
1275764,0,0.00,30.7,338,395,369
1275832,0,0.00,30.6,338,396,368
1275855,0,0.00,30.6,338,396,368
1275948,0,0.00,30.6,338,396,368
1275995,0,0.00,30.7,337,396,368
1276056,0,0.00,30.7,338,395,368
1276136,0,0.00,30.6,338,396,368
1276199,0,0.00,30.6,338,396,368
1276247,0,0.00,30.6,338,396,369
1276342,0,0.00,30.5,338,395,368
1276453,0,0.00,30.6,338,395,368
1276525,0,0.00,30.6,337,395,368
1276593,0,0.00,30.5,337,396,368
1276661,0,0.00,30.5,337,395,368
1276743,0,0.00,30.6,338,395,368
1276812,0,0.00,30.5,338,395,368
1276857,0,0.00,30.6,337,395,368
1276920,0,0.00,30.5,337,395,369
1277007,0,0.00,30.6,338,395,368
1277098,0,0.00,30.5,337,396,368
1277178,0,0.00,30.5,338,395,368
1277221,0,0.00,30.5,338,395,368
1277311,0,0.00,30.5,337,395,368
1277413,0,0.00,30.5,337,396,368
1277492,0,0.00,30.6,338,395,368
1277559,0,0.00,30.5,337,395,368
1277637,0,0.00,30.5,338,395,368
1277715,0,0.00,30.5,337,395,368
1277765,0,0.00,30.5,338,395,368
1277863,0,0.00,30.5,338,395,368
1277922,0,0.00,30.5,337,395,368
1277985,0,0.00,30.5,337,396,368
1278067,0,0.00,30.5,338,395,368
1278126,0,0.00,30.5,337,395,368
1278157,0,0.00,30.4,338,396,368
1278276,0,0.00,30.5,338,395,368
1278360,0,0.00,30.4,337,396,368
1278449,0,0.00,30.5,338,395,368
1278492,0,0.00,30.5,337,395,369
1278560,0,0.00,30.5,338,395,368
1278641,0,0.00,30.4,337,396,368
1278717,0,0.00,30.4,337,395,368
1278784,0,0.00,30.4,337,396,368
1278847,0,0.00,30.5,338,395,368
1278936,0,0.00,30.4,338,395,368
1278989,0,0.00,30.4,337,395,368
1279066,0,0.00,30.5,337,395,368
1279147,0,0.00,30.5,337,395,368
1279188,0,0.00,30.4,338,395,368
1279234,0,0.00,30.5,337,395,368
1279316,0,0.00,30.4,337,395,369
1279407,0,0.00,30.5,338,395,367
1279511,0,0.00,30.4,337,395,368
1279594,0,0.00,30.4,337,396,368
1279673,0,0.00,30.4,337,394,368
1279737,0,0.00,30.4,337,395,368
1279802,0,0.00,30.4,337,396,368
1279853,0,0.00,30.4,338,395,368
1279896,0,0.00,30.4,338,395,368
1279967,0,0.00,30.4,338,396,368
1280059,0,0.00,30.4,337,396,369
1280141,0,0.00,30.4,337,395,369
1280194,0,0.00,30.4,338,395,368
1280281,0,0.00,30.4,337,395,368
1280366,0,0.00,30.4,337,395,369
1280435,0,0.00,30.4,338,395,368
1280487,0,0.00,30.4,338,395,368
1280501,0,0.00,30.4,337,396,369
1280346,0,0.00,30.4,338,395,368
1279269,0,0.00,30.4,337,395,368
1277880,0,0.00,30.4,338,395,368
1278535,0,0.00,30.4,337,395,368
1279434,0,0.00,30.4,337,395,367
1279838,0,0.00,30.4,338,395,368
1280312,0,0.00,30.4,337,395,367
1281341,0,0.00,30.4,337,395,368
1282803,0,0.00,30.4,337,395,368
1283373,0,0.00,30.4,338,395,368
1283053,0,0.00,30.4,337,396,368
1283853,0,0.00,30.4,337,395,368
1285022,0,0.00,30.3,337,395,368
1286530,0,0.00,30.3,338,395,368
1288561,0,0.00,30.4,337,395,368
1289356,0,0.00,30.2,338,395,368
1288989,0,0.00,30.4,337,395,368
1288471,0,0.00,30.4,337,395,368
1287993,0,0.00,30.2,337,395,368
1287434,0,0.00,30.2,337,395,367
1285536,0,0.00,30.3,337,395,368
1283475,0,0.00,30.3,337,396,368
1283936,0,0.00,30.3,338,394,368
1284811,0,0.00,30.2,337,395,368
1285699,0,0.00,30.2,338,395,368
1286029,0,0.00,30.2,337,395,368
1286281,0,0.00,30.2,337,395,369
1286673,0,0.00,30.2,337,395,368
1287717,0,0.00,30.2,337,395,368
1288346,0,0.00,30.1,337,395,369
1288256,0,0.00,30.1,337,395,368
1287847,0,0.00,30.1,337,395,368
1288083,0,0.00,30.1,337,396,368
1288360,0,0.00,30.1,338,394,368
1288021,0,0.00,30.0,337,395,368
1287543,0,0.00,30.0,338,395,368
1286640,0,0.00,29.9,337,395,368
1285675,0,0.00,29.9,337,395,368
1285173,0,0.00,30.0,338,395,368
1284224,0,0.00,30.0,337,395,368
1283699,0,0.00,29.9,337,395,368
1283456,0,0.00,30.0,338,395,367
1283014,0,0.00,29.9,337,395,368
1283677,0,0.00,30.1,337,395,368
1285696,0,0.00,30.1,338,395,367
1288455,0,0.00,30.1,338,395,368
1289617,0,0.00,30.1,337,395,368
1289362,0,0.00,30.1,337,395,368
1288890,0,0.00,30.0,337,395,368
1288402,0,0.00,30.1,337,395,367
1287759,0,0.00,30.1,337,395,368
1285928,0,0.00,30.0,337,396,368
1284277,0,0.00,30.1,337,394,368
1284360,0,0.00,30.0,337,395,368
1284223,0,0.00,30.2,338,395,367
1284310,0,0.00,30.1,337,395,368
1284511,0,0.00,30.2,337,395,368
1284560,0,0.00,30.2,337,395,368
1284956,0,0.00,30.3,337,395,368
1285995,0,0.00,30.2,337,395,368
1288327,0,0.00,30.2,337,395,367
1290115,0,0.00,30.4,337,395,368
1290014,0,0.00,30.4,337,395,368
1289478,0,0.00,30.4,338,395,368
1288930,0,0.00,30.4,337,395,368
1288403,0,0.00,29.3,337,395,368
1287949,0,0.00,30.5,337,395,368
1287310,0,0.00,31.7,337,395,368
1286499,0,0.00,29.8,337,395,368
1285635,0,0.00,29.3,337,395,368
1284648,0,0.00,31.5,337,395,368
1284293,0,0.00,31.2,338,395,367
1285495,0,0.00,29.8,337,395,368
1287040,0,0.00,30.8,337,395,368
1287806,0,0.00,30.9,337,395,368
1287769,0,0.00,31.0,337,395,368
1287414,0,0.00,31.0,338,395,368
1287037,0,0.00,31.0,337,395,368
1286615,0,0.00,31.1,337,395,368
1286308,0,0.00,31.1,337,395,367
1285993,0,0.00,31.1,337,395,368
1285654,0,0.00,31.3,337,396,368
1285384,0,0.00,31.2,337,395,368
1285106,0,0.00,31.2,337,395,368
1284868,0,0.00,31.2,338,395,368
1284665,0,0.00,31.1,337,395,368
1284486,0,0.00,31.1,337,395,368
1284303,0,0.00,30.1,338,395,368
1284202,0,0.00,32.3,337,395,368
1284074,0,0.00,31.5,338,395,368
1283876,0,0.00,30.2,337,395,367
1283694,0,0.00,30.7,337,395,368
1283484,0,0.00,32.8,337,395,368
1283358,0,0.00,30.8,337,394,368
1283396,0,0.00,30.1,337,395,367
1283432,0,0.00,32.3,337,395,368
1283735,0,0.00,32.0,337,395,368
1284192,0,0.00,31.6,337,395,367
1284420,0,0.00,31.6,337,395,368
1284291,0,0.00,31.7,337,395,368
1284117,0,0.00,31.7,337,395,368
1283938,0,0.00,31.7,337,395,367
1283832,0,0.00,31.8,337,395,368
1283707,0,0.00,31.8,337,395,368
1283586,0,0.00,31.7,338,395,368
1283490,0,0.00,30.8,337,395,368
1283342,0,0.00,33.3,338,395,368
1283261,0,0.00,32.0,337,395,368
1283129,0,0.00,30.6,337,395,367
1282958,0,0.00,31.7,337,395,368
1282928,0,0.00,33.4,337,395,368
1283063,0,0.00,31.5,337,395,368
1283301,0,0.00,30.9,337,395,367
1283881,0,0.00,33.1,337,395,368
1284409,0,0.00,32.7,337,395,368
1284558,0,0.00,31.1,337,395,368
1284535,0,0.00,31.5,337,395,367
1284436,0,0.00,34.0,338,395,368
1284346,0,0.00,32.0,337,395,367
1284246,0,0.00,30.5,337,395,368
1284162,0,0.00,32.4,338,395,368
1284035,0,0.00,32.4,337,395,368
1283766,0,0.00,32.4,337,395,369
1283616,0,0.00,32.4,337,395,367
1283606,0,0.00,32.5,338,395,368
1283577,0,0.00,32.5,336,395,368
1283539,0,0.00,32.5,337,395,368
1283432,0,0.00,32.5,337,395,368
1283389,0,0.00,32.6,338,395,367
1283397,0,0.00,32.5,337,395,368
1283391,0,0.00,32.5,338,395,368
1283346,0,0.00,32.5,338,395,367
1283349,0,0.00,32.5,337,395,368
1283380,0,0.00,32.5,337,395,368
1283390,0,0.00,32.4,337,395,367
1283417,0,0.00,32.3,337,395,368
1283398,0,0.00,32.4,337,396,369
1283348,0,0.00,32.5,339,397,369
1283349,0,0.00,32.5,340,397,371
1283422,0,0.00,32.4,341,399,372
1283445,0,0.00,32.5,340,399,371
1283504,0,0.00,32.5,341,399,371
1283536,0,0.00,32.4,341,399,372
1283538,0,0.00,32.5,341,398,372
1283523,0,0.00,32.4,340,399,371
1283590,0,0.00,32.4,341,399,372
1283670,0,0.00,32.4,340,398,371
1283653,0,0.00,32.3,341,399,372
1283701,0,0.00,32.4,340,399,371
1283778,0,0.00,32.4,341,399,372
1283780,0,0.00,32.4,340,399,371
1283776,0,0.00,32.3,340,399,372
1283827,0,0.00,32.3,339,398,371
1283898,0,0.00,32.1,340,399,371
1283939,0,0.00,32.3,341,398,371
1283998,0,0.00,32.4,340,398,371
1284215,0,0.00,32.2,340,399,371
1284376,0,0.00,32.2,340,398,371
1284285,0,0.00,32.1,340,398,371
1284331,0,0.00,32.2,341,398,371
1284350,0,0.00,32.1,340,398,371
1284395,0,0.00,32.2,340,398,371
1284456,0,0.00,32.1,340,398,371
1284521,0,0.00,32.1,339,398,371
1284569,0,0.00,32.0,340,398,371
1284619,0,0.00,32.0,340,398,371
1284637,0,0.00,32.0,340,398,371
1284685,0,0.00,32.0,340,397,371
1284757,0,0.00,31.9,340,398,370
1284814,0,0.00,31.9,340,398,371
1284914,0,0.00,31.8,340,398,371
1284994,0,0.00,31.8,340,398,370
1285017,0,0.00,31.8,340,398,371
1285080,0,0.00,31.8,340,398,371
1285171,0,0.00,31.8,340,398,370
1285240,0,0.00,31.7,340,398,371
1285242,0,0.00,31.7,340,398,370
1285283,0,0.00,31.7,340,398,371
1285373,0,0.00,31.8,340,398,371
1285439,0,0.00,31.7,340,398,371
1285496,0,0.00,31.6,339,398,370
1285539,0,0.00,31.6,340,398,371
1285593,0,0.00,31.7,341,399,371
1285669,0,0.00,31.6,341,398,371
1285770,0,0.00,31.6,341,398,372
1285796,0,0.00,31.6,340,399,371
1285854,0,0.00,31.6,341,398,371
1285934,0,0.00,31.6,341,398,371
1286012,0,0.00,31.5,340,398,371
1286047,0,0.00,31.5,340,398,371
1286126,0,0.00,31.5,340,399,371
1286197,0,0.00,31.5,340,398,371
1286242,0,0.00,31.6,341,399,371
1286262,0,0.00,31.6,340,399,372
1286343,0,0.00,31.5,341,398,371
1286422,0,0.00,31.5,341,399,372
1286466,0,0.00,31.5,341,399,371
1286550,0,0.00,31.5,340,398,371
1286616,0,0.00,31.4,340,398,370
1286675,0,0.00,31.5,340,398,371
1286730,0,0.00,31.5,339,398,370
1286860,0,0.00,31.5,340,398,370
1286879,0,0.00,31.5,340,398,370
1286945,0,0.00,31.5,340,398,371
1287000,0,0.00,31.5,340,397,371
1287076,0,0.00,31.4,340,398,370
1287200,0,0.00,31.5,340,398,370
1287230,0,0.00,31.5,340,398,371
1287251,0,0.00,31.4,339,397,370
1287349,0,0.00,31.5,339,398,370
1287443,0,0.00,31.4,339,398,370
1287484,0,0.00,31.4,339,397,370
1287517,0,0.00,31.3,339,397,370
1287572,0,0.00,31.4,340,397,370
1287669,0,0.00,31.5,339,397,370
1287716,0,0.00,31.4,339,398,370
1287735,0,0.00,31.4,340,398,370
1287747,0,0.00,31.3,340,397,370
1287780,0,0.00,31.4,339,397,370
1287760,0,0.00,31.4,339,398,370
1287780,0,0.00,31.3,339,397,370
1287608,0,0.00,31.5,340,397,370
1287193,0,0.00,31.2,340,397,370
1287234,0,0.00,31.0,339,398,369
1287607,0,0.00,31.8,339,398,370
1288087,0,0.00,31.3,340,397,370
1288210,0,0.00,31.2,339,398,370
1288265,0,0.00,31.3,339,398,370
1288381,0,0.00,31.6,340,397,370
1287584,0,0.00,31.4,339,398,370
1288255,0,0.00,31.5,340,397,370
1291299,0,0.00,31.5,339,397,370
1292218,0,0.00,31.6,339,398,370
1292678,0,0.00,31.5,340,398,370
1292308,0,0.00,31.5,340,397,370
1293337,0,0.00,31.6,340,397,371
1294835,0,0.00,31.6,339,397,369
1294624,0,0.00,31.6,339,397,370
1294240,0,0.00,31.5,339,398,370
1293876,0,0.00,31.6,339,397,370
1293585,0,0.00,31.6,340,397,370
1293294,0,0.00,31.6,339,398,370
1292994,0,0.00,31.6,340,397,370
1292766,0,0.00,31.7,339,397,370
1292568,0,0.00,31.6,340,397,370
1292412,0,0.00,31.5,339,397,370
1292266,0,0.00,31.5,340,397,370
1292097,0,0.00,31.6,340,397,370
1291963,0,0.00,31.6,339,397,370
1291857,0,0.00,31.6,339,398,370
1291763,0,0.00,31.6,340,397,370
1291671,0,0.00,31.6,339,397,371
1291589,0,0.00,31.5,339,397,370
1291504,0,0.00,31.6,339,398,369
1291422,0,0.00,31.5,339,397,371
1291345,0,0.00,31.4,340,398,370
1291261,0,0.00,31.5,340,397,370
1291046,0,0.00,31.8,340,398,370
1290446,0,0.00,31.2,339,398,370
1289702,0,0.00,31.3,340,397,370
1290250,0,0.00,31.8,340,397,370
1289667,0,0.00,31.6,339,398,370
1287358,0,0.00,31.6,339,397,370
1288046,0,0.00,31.6,340,397,370
1289503,0,0.00,31.6,340,398,370
1291546,0,0.00,31.6,339,397,370
1294192,0,0.00,31.6,339,398,370
1294839,0,0.00,31.7,340,398,370
1294779,0,0.00,31.8,339,397,370
1294390,0,0.00,31.7,339,397,370
1290382,0,0.00,31.3,339,397,370
1284366,0,0.00,32.6,339,398,370
1283709,0,0.00,31.8,339,398,371
1284429,0,0.00,31.8,339,397,370
1283309,0,0.00,31.8,339,398,370
1290663,0,0.00,31.8,340,398,371
1298510,0,0.00,31.8,340,397,370
1299591,0,0.00,31.7,340,397,370
1299185,0,0.00,31.7,340,398,371
1298609,0,0.00,31.7,339,397,370
1298034,0,0.00,31.6,339,398,370
1297457,0,0.00,31.6,340,397,370
1296945,0,0.00,31.7,339,397,370
1296455,0,0.00,31.7,340,398,370
1295965,0,0.00,31.5,340,397,371
1295563,0,0.00,31.6,339,397,370
1295207,0,0.00,31.6,339,397,370
1294867,0,0.00,31.5,339,398,369
1294625,0,0.00,31.5,339,398,369
1294350,0,0.00,31.5,340,397,371
1294013,0,0.00,31.5,340,398,370
1293772,0,0.00,31.5,339,397,370
1292290,0,0.00,31.4,339,398,371
1281386,0,0.00,31.5,340,397,370
1265783,0,0.00,31.4,339,397,370
1257280,0,0.00,31.2,340,398,370
1250655,0,0.00,31.3,339,397,370
1238199,0,0.00,31.3,340,398,370
1227497,0,0.00,31.2,340,397,370
1213691,0,0.00,31.3,340,398,370
1209662,0,0.00,31.2,339,398,370
1228637,0,0.00,31.3,340,397,371
1272563,0,0.00,31.2,339,397,370
1292436,0,0.00,31.1,340,397,370
1295275,0,0.00,31.1,340,398,369
1296018,0,0.00,31.1,339,397,370
1296115,0,0.00,30.9,340,397,370
1296079,0,0.00,31.1,339,398,370
1295994,0,0.00,31.1,339,398,370
1295760,0,0.00,31.0,339,398,370
1295440,0,0.00,31.0,340,397,370
1295041,0,0.00,31.0,339,398,370
1294692,0,0.00,31.0,340,398,370
1294372,0,0.00,30.9,339,397,369
1294048,0,0.00,30.9,339,398,370
1293764,0,0.00,31.0,340,397,370
1293458,0,0.00,30.9,339,397,370
1293162,0,0.00,31.0,339,397,370
1292911,0,0.00,31.0,339,398,370
1292623,0,0.00,30.9,339,397,370
1292386,0,0.00,30.9,339,398,370
1292168,0,0.00,30.9,339,398,370
1291915,0,0.00,30.9,339,398,370
1291698,0,0.00,30.9,339,398,370
1291500,0,0.00,30.8,339,398,369
1291058,0,0.00,31.0,339,397,369
1279232,0,0.00,30.8,339,397,370
1224902,0,0.00,30.9,339,397,371
1191947,0,0.00,31.0,339,397,370
1236803,0,0.00,31.2,340,397,370
1279577,0,0.00,31.1,339,398,370
1288662,0,0.00,31.1,339,398,370
1290307,0,0.00,31.2,339,397,370
1290883,0,0.00,31.2,339,397,371
1291033,0,0.00,31.2,339,397,370
1291007,0,0.00,31.2,339,398,370
1290860,0,0.00,31.2,339,397,370
1290699,0,0.00,31.3,339,398,370
1290542,0,0.00,31.2,339,397,370
1290366,0,0.00,31.2,340,397,370
1290218,0,0.00,31.2,339,397,370
1290019,0,0.00,31.2,339,397,369
1289678,0,0.00,31.2,339,396,369
1289481,0,0.00,31.3,340,398,370
1289301,0,0.00,31.3,339,397,369
1289043,0,0.00,31.1,339,398,370
1288877,0,0.00,31.4,339,397,371
1288774,0,0.00,33.7,340,397,370
1288856,0,0.00,31.3,339,395,374
1286570,0,0.00,29.6,344,400,363
1236188,0,0.00,32.0,338,398,370
1137124,49264,6.66,33.2,336,396,370
1112142,74246,8.17,30.6,342,395,370
1181958,4430,7.36,31.5,340,398,370
1256977,0,6.62,31.6,337,398,369
1272993,0,5.96,31.6,340,397,369
1277088,0,5.36,31.7,339,397,371
1279153,0,4.83,31.7,340,398,370
1280290,0,4.34,31.8,339,397,370
1280954,0,3.91,31.8,340,398,370
1281428,0,3.52,31.8,339,397,370
1281860,0,3.17,31.8,339,397,371
1282050,0,2.85,31.8,340,397,371
1282146,0,2.57,31.8,340,397,370
1282167,0,2.31,31.8,340,397,370
1282173,0,2.08,31.8,339,398,371
1282184,0,1.87,31.8,339,397,370
1282190,0,1.68,31.8,339,397,370
1282115,0,1.51,31.8,339,398,370
1282008,0,1.36,31.8,339,397,370
1281988,0,1.23,31.8,339,397,370
1281955,0,1.10,31.7,339,397,370
1281860,0,0.99,31.8,339,397,370
1281746,0,0.89,31.8,339,398,370
1281680,0,0.80,31.8,340,398,370
1281591,0,0.72,31.8,339,397,370
1281550,0,0.65,31.8,339,398,370
1281585,0,0.59,31.8,339,398,370
1281488,0,0.53,31.7,339,397,370
1281390,0,0.48,31.8,339,397,370
1281374,0,0.43,31.8,339,397,370
1281329,0,0.39,31.7,339,397,370
1281298,0,0.35,31.8,339,397,370
1281275,0,0.31,31.8,339,397,370
1281190,0,0.28,31.7,339,397,370
1281147,0,0.25,31.7,339,397,370
1281139,0,0.23,31.7,340,397,370
1281150,0,0.20,31.7,339,397,370
1281098,0,0.18,31.7,340,397,369
1281091,0,0.17,31.7,339,397,370
1281073,0,0.15,31.6,339,398,369
1281047,0,0.13,31.7,339,398,370
1281016,0,0.12,31.7,339,397,370
1280975,0,0.11,31.7,339,397,370
1281019,0,0.10,31.7,339,397,369
1281044,0,0.09,31.7,339,397,370
1281043,0,0.08,31.7,339,397,370
1281021,0,0.07,31.7,339,397,370
1281038,0,0.06,31.7,339,397,370
1281049,0,0.06,31.7,339,398,370
1281055,0,0.05,31.6,339,397,370
1281063,0,0.05,31.7,339,397,370
1281086,0,0.04,31.6,340,397,370
1281110,0,0.04,31.5,339,397,370
1281130,0,0.03,31.6,339,397,369
1281166,0,0.03,31.7,340,397,370
1281189,0,0.03,31.6,339,397,369
1281228,0,0.02,31.6,340,397,370
1281259,0,0.02,31.7,339,397,369
1281271,0,0.02,31.6,339,397,370
1281277,0,0.02,31.5,339,397,370
1281336,0,0.02,31.6,339,398,370
1281363,0,0.01,31.6,339,397,370
1281390,0,0.01,31.6,339,398,370
1281398,0,0.01,31.7,339,397,370
1281416,0,0.01,31.6,339,397,370
1281488,0,0.01,31.7,340,397,370
1281522,0,0.01,31.5,339,397,370
1281571,0,0.01,31.6,340,397,369
1281603,0,0.01,31.6,340,398,370
1281689,0,0.01,31.6,339,397,370
1281736,0,0.01,31.6,340,399,371
1281799,0,0.01,31.6,340,398,371
1281814,0,0.00,31.7,339,398,371
1281820,0,0.00,31.5,340,398,371
1281928,0,0.00,31.5,340,398,370
1281946,0,0.00,31.5,340,398,370
1281974,0,0.00,31.6,340,398,371
1282064,0,0.00,31.5,340,398,370
1282112,0,0.00,31.6,340,398,370
1282177,0,0.00,31.6,340,398,371
1282263,0,0.00,31.5,340,398,370
1282288,0,0.00,31.6,340,398,371
1282298,0,0.00,31.5,340,398,370
1282394,0,0.00,31.6,340,398,371
1282456,0,0.00,31.5,340,398,370
1282514,0,0.00,31.5,340,398,371
1282555,0,0.00,31.5,339,398,370
1282614,0,0.00,31.5,341,399,371
1282678,0,0.00,31.5,341,399,371
1282752,0,0.00,31.5,341,398,371
1282789,0,0.00,31.6,341,399,372
1282839,0,0.00,31.5,341,399,370
1282908,0,0.00,31.5,341,399,371
1282981,0,0.00,31.4,341,399,372
1283076,0,0.00,31.5,341,399,371
1283135,0,0.00,31.6,340,399,371
1283182,0,0.00,31.5,340,399,372
1283234,0,0.00,31.6,341,399,372
1283320,0,0.00,31.5,340,398,371
1283397,0,0.00,31.5,341,398,371
1283431,0,0.00,31.5,340,398,370
1283464,0,0.00,31.4,340,399,371
1283512,0,0.00,31.4,340,398,371
1283636,0,0.00,31.5,340,398,371
1283744,0,0.00,31.4,340,398,371
1283817,0,0.00,31.5,340,398,371
1283878,0,0.00,31.5,340,398,371
1283941,0,0.00,31.5,340,398,371
1284020,0,0.00,31.5,340,398,370
1284035,0,0.00,31.4,340,398,370
1284088,0,0.00,31.3,340,399,370
1284186,0,0.00,31.4,340,398,370
1284261,0,0.00,31.5,339,398,371
1284308,0,0.00,31.4,340,398,371
1284404,0,0.00,31.4,340,397,371
1284426,0,0.00,31.4,340,398,370
1284498,0,0.00,31.4,340,398,371
1284615,0,0.00,31.4,339,398,370
1284693,0,0.00,31.4,340,398,370
1284737,0,0.00,31.5,340,398,370
1284808,0,0.00,31.4,340,398,370
1284887,0,0.00,31.4,340,398,371
1284893,0,0.00,31.6,340,398,370
1284970,0,0.00,31.4,340,399,371
1285067,0,0.00,31.4,341,400,372
1285153,0,0.00,31.4,341,399,371
1285255,0,0.00,31.5,341,399,371
1285274,0,0.00,31.4,340,399,371
1285282,0,0.00,31.4,341,398,371
1285385,0,0.00,31.4,340,399,371
1285478,0,0.00,31.4,341,399,371
1285524,0,0.00,31.4,340,399,371
1285598,0,0.00,31.4,340,398,371
1285694,0,0.00,31.4,340,399,371
1285789,0,0.00,31.4,340,398,371
1285823,0,0.00,31.3,340,399,371
1285825,0,0.00,31.3,340,398,371
1285889,0,0.00,31.5,340,398,371
1285994,0,0.00,31.3,340,398,371
1286028,0,0.00,31.3,340,399,371
1286089,0,0.00,31.3,340,398,371
1286175,0,0.00,31.4,340,399,372
1286320,0,0.00,29.8,340,398,371
1286449,0,0.00,32.2,340,398,371
1286221,0,0.00,33.0,340,398,372
1268376,0,0.00,30.5,340,399,371
1190914,0,0.00,29.8,340,399,371
1135721,50667,6.75,33.2,340,398,371
1156124,30264,6.08,31.9,340,398,371
1232849,0,5.47,31.8,340,398,372
1275016,0,4.92,31.8,340,398,371
1282447,0,4.43,32.0,340,398,371
1284932,0,3.99,31.9,340,398,371
1286196,0,3.59,31.9,340,399,371
1286855,0,3.23,31.9,340,398,371
1287216,0,2.91,32.0,340,398,371
1287462,0,2.62,32.0,340,398,370
1287589,0,2.35,32.0,340,398,371
1287571,0,2.12,32.0,340,398,371
1287538,0,1.91,32.0,340,399,371
1287530,0,1.72,32.0,340,398,371
1287487,0,1.54,32.0,340,399,371
1287443,0,1.39,31.9,340,398,371
1287374,0,1.25,32.0,340,398,371
1287349,0,1.13,31.9,340,399,371
1287298,0,1.01,32.0,340,398,371
1287212,0,0.91,32.0,340,398,371
1287160,0,0.82,32.0,340,398,371
1287106,0,0.74,32.0,340,398,371
1287058,0,0.66,32.1,340,398,371
1286973,0,0.60,31.9,340,398,371
1286976,0,0.54,32.0,340,398,371
1286903,0,0.48,32.0,340,398,371
1286805,0,0.44,32.0,340,398,371
1286814,0,0.39,31.9,340,398,371
1286717,0,0.35,31.9,339,397,373
1286567,0,0.32,34.6,343,399,370
1286607,0,0.29,32.0,338,398,371
1286919,0,0.26,30.3,342,397,370
1286817,0,0.23,32.9,343,398,371
1286847,0,0.21,33.0,341,398,370
1286882,0,0.19,31.1,340,404,376
1273729,0,0.17,30.4,343,405,374
1196642,0,0.15,33.7,340,397,370
1125300,61088,7.41,32.6,341,397,366
1125549,60839,6.67,30.7,343,399,370
1193427,0,6.01,32.2,341,399,370
1261643,0,5.41,32.3,356,431,371
1278173,0,4.86,32.3,342,399,372
1282017,0,4.38,32.4,340,398,371
1284039,0,3.94,32.4,340,398,371
1285124,0,3.55,32.5,340,398,371
1285693,0,3.19,32.5,340,398,371
1286042,0,2.87,32.5,341,398,372
1286295,0,2.59,32.6,340,398,371
1286376,0,2.33,32.5,340,398,371
1286366,0,2.09,32.5,340,398,371
1286364,0,1.88,32.5,340,398,371
1286380,0,1.70,32.5,340,398,371
1286323,0,1.53,32.5,340,398,371
1286252,0,1.37,32.5,340,398,371
1286188,0,1.24,32.5,341,398,371
1286111,0,1.11,32.6,341,398,371
1285995,0,1.00,32.5,340,398,372
1285943,0,0.90,32.5,341,398,371
1285884,0,0.81,32.5,341,398,371
1285818,0,0.73,32.5,341,398,372
1285751,0,0.66,32.5,341,399,372
1285674,0,0.59,32.5,342,398,372
1285609,0,0.53,32.5,341,399,372
1285589,0,0.48,32.5,341,398,372
1285528,0,0.43,32.5,341,398,371
1285469,0,0.39,32.4,341,398,371
1285415,0,0.35,32.4,341,399,371
1285354,0,0.31,32.4,340,398,371
1285332,0,0.28,32.5,341,398,371
1285280,0,0.25,32.4,341,398,372
1285194,0,0.23,32.5,340,398,371
1285174,0,0.21,32.4,341,398,372
1285167,0,0.19,32.4,341,398,371
1285153,0,0.17,32.4,341,398,371
1285110,0,0.15,32.4,341,398,372
1285092,0,0.14,32.4,341,398,371
1285054,0,0.12,32.5,341,398,372
1285049,0,0.11,32.4,341,399,372
1285070,0,0.10,32.4,341,398,371
1285085,0,0.09,32.3,341,399,371
1285067,0,0.08,32.3,341,398,372
1285018,0,0.07,32.4,341,398,371
1285028,0,0.06,32.3,341,398,372
1285045,0,0.06,32.3,341,399,371
1285082,0,0.05,32.4,341,398,372
1285101,0,0.05,32.4,341,398,371
1285108,0,0.04,32.3,341,398,372
1285066,0,0.04,32.3,341,399,372
1285085,0,0.03,32.4,340,398,372
1285154,0,0.03,32.3,341,399,371
1285185,0,0.03,32.3,341,399,371
1285214,0,0.03,32.3,341,398,372
1285198,0,0.02,32.2,341,399,371
1285242,0,0.02,32.3,341,398,371
1285256,0,0.02,32.4,341,399,371
1285300,0,0.02,32.3,341,398,371
1285335,0,0.01,32.3,341,398,371
1285343,0,0.01,32.2,340,399,371
1285400,0,0.01,32.2,341,398,372
1285468,0,0.01,32.3,341,398,371
1285482,0,0.01,32.2,341,398,371
1285472,0,0.01,32.2,341,398,371
1285527,0,0.01,32.3,341,398,371
1285596,0,0.01,32.2,341,399,371
1285643,0,0.01,32.2,340,398,371
1285696,0,0.01,32.2,341,398,371
1285719,0,0.01,32.2,341,398,371
1285751,0,0.00,32.3,340,398,371
1285788,0,0.00,32.1,341,398,371
1285860,0,0.00,32.2,341,398,372
1285901,0,0.00,32.2,340,398,371
1285938,0,0.00,32.2,341,398,371
1285999,0,0.00,32.1,341,398,371
1286060,0,0.00,32.2,340,398,372
1286131,0,0.00,32.1,341,398,371
1286160,0,0.00,32.2,341,398,371
1286191,0,0.00,32.1,341,398,371
1286249,0,0.00,32.2,341,398,371
1286285,0,0.00,32.1,341,398,371
1286343,0,0.00,32.2,341,398,371
1286413,0,0.00,32.1,341,398,371
1286480,0,0.00,32.1,341,398,371
1286533,0,0.00,32.1,341,398,371
1286594,0,0.00,32.1,341,398,371
1286603,0,0.00,32.1,340,398,371
1286659,0,0.00,32.1,341,398,371
1286717,0,0.00,32.1,341,398,371
1286790,0,0.00,32.1,340,398,371
1286892,0,0.00,32.1,340,398,371
1286947,0,0.00,32.1,341,398,371
1287007,0,0.00,32.2,340,398,371
1287062,0,0.00,32.1,341,398,371
1287085,0,0.00,32.1,341,397,371
1287107,0,0.00,32.0,341,398,371
1287191,0,0.00,32.2,340,398,371
1287240,0,0.00,32.0,341,397,370
1287200,0,0.00,32.1,340,399,371
1287217,0,0.00,-16.9,106,65,95
1287460,0,0.00,31.9,328,387,362
1287598,0,0.00,29.3,450,403,370
1286157,0,0.00,33.2,472,396,374
1274249,0,0.00,33.2,478,399,366
1202923,0,0.00,31.5,339,397,372
1130229,56159,7.11,31.1,339,395,368
1135785,50603,6.40,32.5,341,398,371
1212302,0,5.76,32.5,342,398,371
1270564,0,5.18,32.5,341,398,370
1281435,0,4.66,32.5,342,397,371
1284702,0,4.20,32.5,341,398,371
1286382,0,3.78,32.6,341,397,371
1287250,0,3.40,32.5,342,397,371
1287781,0,3.06,32.7,341,398,371
1288032,0,2.75,32.5,342,397,371
1288192,0,2.48,32.6,341,398,371
1288279,0,2.23,32.6,341,398,371
1288278,0,2.01,32.6,341,397,371
1288243,0,1.81,32.6,341,398,371
1288217,0,1.63,32.6,342,398,371
1288173,0,1.46,32.6,341,398,371
1288071,0,1.32,32.6,341,398,371
1288002,0,1.19,32.7,341,398,371
1287977,0,1.07,32.6,342,399,372
1287972,0,0.96,32.7,343,399,373
1287912,0,0.86,32.6,343,399,372
1287807,0,0.78,32.6,342,399,372
1287727,0,0.70,32.6,342,399,373
1287687,0,0.63,32.6,343,400,373
1287671,0,0.57,32.6,343,399,373
1287636,0,0.51,32.7,343,400,373
1287579,0,0.46,32.7,345,401,375
1287532,0,0.41,32.6,345,402,375
1287517,0,0.37,32.5,343,399,373
1287548,0,0.33,32.5,344,400,374
1287520,0,0.30,32.5,344,401,374
1287434,0,0.27,32.6,343,399,373
1287429,0,0.24,32.5,342,398,372
1287421,0,0.22,32.6,344,400,373
1287336,0,0.20,32.6,343,399,372
1287383,0,0.18,32.5,341,397,371
1287376,0,0.16,32.5,341,397,371
1287347,0,0.14,32.6,342,397,371
1287379,0,0.13,32.5,341,397,370
1287391,0,0.12,32.5,341,397,370
1287371,0,0.11,32.5,342,398,371
1287364,0,0.09,32.4,342,398,371
1287353,0,0.09,32.5,341,397,371
1287384,0,0.08,32.5,341,397,370
1287416,0,0.07,32.5,341,397,370
1287397,0,0.06,32.5,341,397,371
1287404,0,0.06,32.4,341,397,370
1287445,0,0.05,32.5,341,397,370
1287490,0,0.05,32.5,341,398,371
1287477,0,0.04,32.4,342,397,371
1287479,0,0.04,32.4,341,397,371
1287513,0,0.03,32.5,342,397,371
1287578,0,0.03,32.5,340,397,370
1287613,0,0.03,32.4,341,397,370
1287624,0,0.02,32.4,341,396,370
1287631,0,0.02,32.4,340,397,370
1287682,0,0.02,32.4,340,396,369
1287749,0,0.02,32.4,340,396,369
1287780,0,0.02,32.3,340,396,369
1287812,0,0.01,32.5,344,400,373