System output with pulse of air occasionally
Raw,Delta,Flow,TempC,AccX,AccY,AccZ
1374671,0,0.00,29.3,362,347,394
1375035,0,0.00,29.3,362,347,394
1375449,0,0.00,29.3,362,347,394
1375836,0,0.00,29.3,362,347,394
1376202,0,0.00,29.4,362,348,394
1376617,0,0.00,29.3,362,347,394
1377014,0,0.00,29.3,362,347,394
1377401,0,0.00,29.3,362,347,393
1377810,0,0.00,29.3,362,347,394
1378208,0,0.00,29.4,362,347,394
1378612,0,0.00,29.4,362,347,394
1378976,0,0.00,29.3,362,347,394
1379346,0,0.00,29.4,362,347,394
1379736,0,0.00,29.3,362,347,393
1380141,0,0.00,29.3,362,347,393
1380539,0,0.00,29.4,363,347,394
1380901,0,0.00,29.3,362,347,394
1381281,0,0.00,29.3,362,348,394
1381661,0,0.00,29.3,363,347,394
1382068,0,0.00,29.4,362,347,394
1382404,0,0.00,29.3,362,347,394
1382764,0,0.00,29.3,362,347,394
1383155,0,0.00,29.3,362,346,393
1383524,0,0.00,29.3,362,347,394
1383922,0,0.00,29.3,362,347,394
1384267,0,0.00,29.3,362,347,394
1384632,0,0.00,29.3,362,347,394
1385017,0,0.00,29.3,362,347,394
1385337,0,0.00,29.3,362,347,393
1385692,0,0.00,29.3,362,347,394
1386083,0,0.00,29.3,362,347,394
1386429,0,0.00,29.3,362,347,394
1386778,0,0.00,29.3,362,347,394
1387156,0,0.00,29.3,362,347,394
1387512,0,0.00,29.3,362,347,393
1387838,0,0.00,29.3,362,347,393
1388184,0,0.00,29.3,362,347,394
1388510,0,0.00,29.3,362,347,394
1388867,0,0.00,29.3,363,347,394
1389223,0,0.00,29.3,362,347,393
1389557,0,0.00,29.3,362,347,394
1389878,0,0.00,29.3,362,347,393
1390228,0,0.00,29.3,362,347,394
1390549,0,0.00,29.3,362,347,394
1390894,0,0.00,29.3,362,347,394
1391198,0,0.00,29.3,362,347,394
1391546,0,0.00,29.3,362,347,394
1391856,0,0.00,29.3,363,347,394
1392170,0,0.00,29.3,362,347,394
1392492,0,0.00,29.2,362,347,394
1392833,0,0.00,29.3,362,347,394
1393095,0,0.00,29.3,362,347,394
1393454,0,0.00,29.3,362,348,394
1393803,0,0.00,29.3,362,347,394
1394073,0,0.00,29.3,362,347,394
1394414,0,0.00,29.3,363,347,394
1394669,0,0.00,29.2,362,347,394
1395012,0,0.00,29.3,362,347,394
1395325,0,0.00,29.3,362,348,394
1395644,0,0.00,29.3,362,347,394
1395928,0,0.00,29.3,362,347,394
1396205,0,0.00,29.3,362,348,394
1396498,0,0.00,29.2,362,347,394
1396843,0,0.00,29.3,362,347,393
1397140,0,0.00,29.3,362,348,394
1397443,0,0.00,29.3,362,348,394
1397708,0,0.00,29.3,362,348,394
1397998,0,0.00,29.2,362,347,394
1398300,0,0.00,29.3,362,347,394
1398612,0,0.00,29.3,362,347,393
1398913,0,0.00,29.3,362,347,394
1399192,0,0.00,29.3,362,348,394
1399433,0,0.00,29.3,362,347,394
1399728,0,0.00,29.2,362,347,394
1400028,0,0.00,29.3,362,347,394
1400288,0,0.00,29.3,362,347,393
1400555,0,0.00,29.3,362,347,394
1400865,0,0.00,29.3,362,347,394
1401145,0,0.00,29.2,362,347,394
1401399,0,0.00,29.3,362,347,394
1401680,0,0.00,29.3,362,347,394
1401948,0,0.00,29.3,362,348,394
1402222,0,0.00,29.3,362,347,393
1402517,0,0.00,29.3,362,347,394
1402802,0,0.00,29.3,362,347,394
1403006,0,0.00,29.3,362,347,394
1403285,0,0.00,29.3,362,347,394
1403558,0,0.00,29.3,362,348,394
1403839,0,0.00,29.2,362,348,393
1404086,0,0.00,29.3,362,348,393
1404337,0,0.00,29.3,362,347,394
1404634,0,0.00,29.3,362,348,394
1404910,0,0.00,29.3,363,347,394
1405127,0,0.00,29.3,362,347,394
1405414,0,0.00,29.2,363,347,394
1405625,0,0.00,29.3,363,348,394
1405919,0,0.00,29.2,362,347,394
1406177,0,0.00,29.3,363,347,394
1406408,0,0.00,29.3,362,347,394
1406697,0,0.00,29.3,363,347,394
1406923,0,0.00,29.3,362,347,394
1407212,0,0.00,29.3,362,348,395
1407411,0,0.00,29.3,362,348,394
1407661,0,0.00,29.2,363,347,394
1407922,0,0.00,29.3,362,347,394
1408170,0,0.00,29.3,362,348,394
1408403,0,0.00,29.3,363,348,395
1408637,0,0.00,29.2,363,348,394
1408899,0,0.00,29.3,363,348,394
1409121,0,0.00,29.2,363,348,394
1409390,0,0.00,29.3,363,347,394
1409610,0,0.00,29.3,363,348,394
1409867,0,0.00,29.3,363,348,395
1410109,0,0.00,29.2,363,348,395
1410331,0,0.00,29.3,363,348,395
1410548,0,0.00,29.2,363,348,394
1410829,0,0.00,29.2,363,348,395
1411068,0,0.00,29.3,363,348,394
1411269,0,0.00,29.3,363,348,394
1411504,0,0.00,29.3,363,348,394
1411764,0,0.00,29.2,363,348,394
1411988,0,0.00,29.2,363,348,395
1412197,0,0.00,29.2,363,348,394
1412430,0,0.00,29.2,363,348,394
1412664,0,0.00,29.2,363,348,395
1412876,0,0.00,29.2,363,348,394
1413083,0,0.00,29.2,362,347,394
1413304,0,0.00,29.2,362,346,394
1413569,0,0.00,29.2,361,347,393
1413773,0,0.00,29.3,362,347,393
1413951,0,0.00,29.2,362,347,394
1414243,0,0.00,29.3,362,347,394
1414463,0,0.00,29.3,362,347,394
1414669,0,0.00,29.2,362,347,393
1414893,0,0.00,29.2,361,346,393
1415089,0,0.00,29.2,361,347,393
1415295,0,0.00,29.3,362,347,393
1415526,0,0.00,29.3,362,347,393
1415748,0,0.00,29.2,362,347,394
1415968,0,0.00,29.2,362,347,393
1416185,0,0.00,29.2,362,346,393
1416413,0,0.00,29.2,362,347,393
1416633,0,0.00,29.3,362,347,393
1416786,0,0.00,29.3,362,346,393
1417024,0,0.00,29.2,362,347,393
1417254,0,0.00,29.2,361,347,393
1417461,0,0.00,29.2,362,347,393
1417679,0,0.00,29.2,362,347,393
1417897,0,0.00,29.2,362,347,393
1418098,0,0.00,29.3,362,347,393
1418265,0,0.00,29.2,361,347,393
1418492,0,0.00,29.2,362,347,393
1418727,0,0.00,29.2,362,347,393
1418905,0,0.00,29.2,361,347,393
1419125,0,0.00,29.2,361,347,394
1419301,0,0.00,29.3,362,347,393
1419510,0,0.00,29.3,362,347,393
1419649,0,0.00,29.2,362,346,393
1419788,0,0.00,29.3,361,347,393
1420029,0,0.00,29.3,362,347,394
1420168,0,0.00,29.6,360,346,394
1420645,0,0.00,31.0,363,346,394
1390128,0,0.00,30.1,363,345,395
1240225,128488,10.75,29.1,359,345,393
1316290,52423,7.53,30.5,362,348,392
1406466,0,5.27,30.8,363,347,393
1411771,0,3.69,30.9,362,348,393
1412994,0,2.58,30.9,363,348,393
1413275,0,1.81,30.9,363,347,393
1413198,0,1.27,30.8,363,348,393
1413026,0,0.89,30.9,363,348,393
1412850,0,0.62,30.8,363,348,392
1412677,0,0.43,30.8,362,347,393
1412511,0,0.30,30.8,362,348,393
1412366,0,0.21,30.8,363,348,392
1412238,0,0.15,30.8,363,348,392
1412131,0,0.10,30.8,363,347,393
1412135,0,0.07,30.8,363,348,392
1412100,0,0.05,30.7,363,348,392
1412049,0,0.04,30.8,363,347,392
1412077,0,0.03,30.6,363,347,393
1412095,0,0.02,30.6,362,348,393
1412171,0,0.01,30.6,363,348,392
1412222,0,0.01,30.6,363,347,392
1412335,0,0.01,30.6,363,348,392
1412437,0,0.00,30.6,362,348,393
1412545,0,0.00,30.5,362,347,392
1412639,0,0.00,30.5,363,348,393
1412773,0,0.00,30.5,363,348,392
1412898,0,0.00,30.5,363,348,392
1413058,0,0.00,30.5,363,347,393
1413246,0,0.00,30.5,362,348,392
1413399,0,0.00,30.5,363,347,393
1413550,0,0.00,30.5,362,347,392
1413751,0,0.00,30.5,362,348,393
1413957,0,0.00,30.4,363,348,392
1414133,0,0.00,30.5,363,347,393
1414293,0,0.00,30.5,363,348,393
1414451,0,0.00,30.4,362,348,392
1414658,0,0.00,30.4,362,348,392
1414805,0,0.00,30.3,362,348,392
1415001,0,0.00,30.4,362,348,392
1415174,0,0.00,30.3,363,348,392
1415460,0,0.00,30.4,363,347,393
1415401,0,0.00,31.1,363,346,393
1415920,0,0.00,29.3,365,347,392
1378388,0,0.00,29.6,362,347,393
1238543,130170,10.82,30.6,363,349,393
1297465,71248,7.58,31.8,366,349,392
1401338,0,5.30,32.0,364,349,391
1411150,0,3.71,32.1,364,350,391
1412752,0,2.60,32.0,365,349,391
1413055,0,1.82,32.2,364,349,392
1412947,0,1.27,32.1,364,349,391
1412719,0,0.89,32.1,364,349,391
1412479,0,0.62,32.2,364,349,391
1412213,0,0.44,32.1,364,349,392
1411999,0,0.31,32.0,364,349,392
1411813,0,0.21,31.9,364,349,391
1411549,0,0.15,32.0,364,349,391
1411432,0,0.10,32.0,364,349,392
1411344,0,0.07,32.0,365,349,391
1411247,0,0.05,32.0,364,349,391
1411207,0,0.04,31.9,364,349,391
1411176,0,0.03,31.8,364,349,391
1411169,0,0.02,31.8,364,349,391
1411191,0,0.01,31.8,364,349,391
1411264,0,0.01,31.8,364,349,391
1411307,0,0.01,31.6,364,350,391
1411355,0,0.00,31.6,365,349,391
1411421,0,0.00,31.6,364,349,391
1411564,0,0.00,31.5,364,349,391
1411647,0,0.00,31.5,364,349,391
1411750,0,0.00,31.6,364,349,391
1411911,0,0.00,31.6,364,349,391
1412038,0,0.00,31.4,364,349,391
1412163,0,0.00,31.4,364,349,391
1412362,0,0.00,31.5,364,350,391
1412499,0,0.00,31.4,364,349,391
1412625,0,0.00,31.4,364,349,390
1412793,0,0.00,31.3,364,349,391
1412941,0,0.00,31.3,364,349,391
1412989,0,0.00,31.1,364,349,391
1413224,0,0.00,31.2,365,350,392
1413213,0,0.00,31.2,366,351,390
1413508,0,0.00,31.7,364,350,391
1413882,0,0.00,32.8,365,350,391
1325215,43498,6.26,32.0,362,352,390
1256031,112682,10.07,31.8,363,349,391
1396437,0,7.05,32.1,365,349,391
1410589,0,4.93,32.1,365,350,391
1412564,0,3.45,32.1,365,349,390
1412985,0,2.42,32.1,365,350,390
1412993,0,1.69,32.1,365,350,391
1412839,0,1.18,32.0,364,350,390
1412633,0,0.83,32.0,365,349,391
1412432,0,0.58,32.0,365,349,390
1412249,0,0.41,32.0,365,349,390
1412093,0,0.28,31.9,365,350,391
1411998,0,0.20,31.9,365,349,391
1411885,0,0.14,31.9,365,350,391
1411800,0,0.10,31.9,365,349,391
1411788,0,0.07,31.8,365,349,391
1411744,0,0.05,31.8,367,352,393
1411725,0,0.03,31.7,367,352,393
1411723,0,0.02,31.8,366,351,392
1411798,0,0.02,31.8,367,350,392
1411848,0,0.01,31.8,374,358,400
1411911,0,0.01,31.7,377,360,400




System output with now air and only vibrations
System Initializing...
Keep airflow OFF and system STILL for calibration...
System Initializing...
Keep airflow OFF and system STILL for calibration...
Raw,Delta,Flow,TempC,AccX,AccY,AccZ
1354366,0,0.00,29.7,706,392,363
1354746,0,0.00,29.7,531,392,364
1355122,0,0.00,29.7,516,392,364
1355470,0,0.00,29.7,517,392,364
1355879,0,0.00,29.6,537,392,364
1356215,0,0.00,29.7,559,392,364
1356554,0,0.00,29.7,542,392,364
1356895,0,0.00,29.6,519,392,364
1357318,0,0.00,29.7,515,392,364
1357682,0,0.00,29.6,524,392,364
1358061,0,0.00,29.6,554,392,364
1358410,0,0.00,29.6,558,392,364
1358755,0,0.00,29.7,528,392,364
1359109,0,0.00,29.6,516,392,364
1359468,0,0.00,29.7,519,392,364
1359775,0,0.00,29.8,539,392,364
1360165,0,0.00,29.6,561,392,364
1360485,0,0.00,29.6,544,392,364
1360836,0,0.00,29.6,520,392,364
1361216,0,0.00,29.6,517,392,364
1361548,0,0.00,29.7,526,392,364
1361834,0,0.00,29.6,556,392,364
1362212,0,0.00,29.6,558,392,364
1362557,0,0.00,29.7,528,392,364
1362906,0,0.00,29.6,518,392,364
1363225,0,0.00,29.6,521,392,364
1363549,0,0.00,29.8,541,392,364
1363870,0,0.00,29.6,562,392,364
1364195,0,0.00,29.6,544,392,364
1364536,0,0.00,29.6,522,392,364
1364846,0,0.00,29.6,519,392,364
1365166,0,0.00,29.6,529,392,364
1365481,0,0.00,29.6,558,393,364
1365799,0,0.00,29.6,559,392,364
1366109,0,0.00,29.6,529,392,363
1366434,0,0.00,29.6,519,392,364
1366798,0,0.00,29.6,521,392,364
1367084,0,0.00,29.7,543,392,363
1367354,0,0.00,29.6,563,392,364
1367672,0,0.00,29.7,544,392,364
1368005,0,0.00,29.5,522,393,364
1368311,0,0.00,29.6,519,393,364
1368597,0,0.00,29.7,530,392,364
1368888,0,0.00,29.6,559,392,364
1369195,0,0.00,29.7,558,392,364
1369545,0,0.00,29.6,529,392,363
1369788,0,0.00,29.6,520,393,364
1370108,0,0.00,29.6,522,392,363
1370401,0,0.00,29.6,545,392,364
1370701,0,0.00,29.6,565,392,364
1371007,0,0.00,29.6,544,392,364
1371282,0,0.00,29.7,523,392,363
1371565,0,0.00,29.6,520,391,364
1371844,0,0.00,29.6,532,392,364
1372121,0,0.00,29.6,561,392,364
1372425,0,0.00,29.5,558,392,363
1372669,0,0.00,29.7,529,392,363
1372969,0,0.00,29.6,520,392,364
1373284,0,0.00,29.6,524,392,364
1373554,0,0.00,29.5,548,392,364
1373840,0,0.00,29.6,565,392,363
1374112,0,0.00,29.5,542,392,363
1374349,0,0.00,29.6,522,392,364
1374625,0,0.00,29.5,520,392,364
1374915,0,0.00,29.5,534,392,364
1375182,0,0.00,29.6,563,392,363
1375455,0,0.00,29.5,556,392,364
1375742,0,0.00,29.5,529,392,364
1376005,0,0.00,29.6,521,392,364
1376274,0,0.00,29.5,526,392,364
1376560,0,0.00,29.6,551,392,364
1376797,0,0.00,29.5,566,392,364
1377040,0,0.00,29.6,541,392,363
1377330,0,0.00,29.5,524,392,363
1377597,0,0.00,29.5,521,392,363
1377832,0,0.00,29.5,536,392,363
1378084,0,0.00,29.6,564,392,364
1378363,0,0.00,29.5,555,392,364
1378607,0,0.00,29.5,528,392,364
1378834,0,0.00,29.5,521,392,364
1379106,0,0.00,29.6,527,392,363
1379373,0,0.00,29.6,556,392,364
1379607,0,0.00,29.5,567,392,363
1379817,0,0.00,29.6,538,392,364
1380109,0,0.00,29.6,523,392,363
1380351,0,0.00,29.6,523,392,363
1380581,0,0.00,29.6,541,392,364
1380837,0,0.00,29.6,566,392,363
1381062,0,0.00,29.5,550,392,363
1381361,0,0.00,29.5,526,393,363
1381586,0,0.00,29.5,521,392,364
1381837,0,0.00,29.6,531,392,363
1382046,0,0.00,29.5,563,392,363
1382226,0,0.00,29.5,589,393,364
1382325,0,0.00,29.6,548,372,355
1382483,0,0.00,29.6,534,392,364
1382209,0,0.00,29.5,553,381,357
1382260,0,0.00,29.5,526,397,375
1382366,0,0.00,29.5,519,402,385
1382501,0,0.00,29.4,494,380,354
1382700,0,0.00,29.5,472,374,354
1382993,0,0.00,29.5,325,352,361
System Initializing...
Keep airflow OFF and system STILL for calibration...
Raw,Delta,Flow,TempC,AccX,AccY,AccZ
1393649,0,0.00,29.4,339,397,363
1393874,0,0.00,29.3,339,394,363
1394053,0,0.00,29.4,481,401,370
1394226,0,0.00,29.3,275,331,305
1394441,0,0.00,29.3,341,385,364
1394602,0,0.00,29.3,337,405,343
1394762,0,0.00,-20.7,114,97,131
1394995,0,0.00,29.4,326,379,373
1395188,0,0.00,29.3,346,407,357
1395371,0,0.00,29.4,336,399,357
1395609,0,0.00,29.4,332,408,33
1395963,0,0.00,29.3,331,399,353
1396191,0,0.00,29.3,338,396,358
1396344,0,0.00,29.3,351,360,385
1396533,0,0.00,15.9,317,424,329
1396770,0,0.00,29.4,349,360,399
1396916,0,0.00,29.3,324,407,341
139□□□□□□□□□□□□□□□□□□□□□□□□□□□□□□□□□□□□□□□□□□□□□□□□□□□□□□□□□□□□□□□□System Initializing...
Keep airflow OFF and system STILL for calibration...
Raw,Delta,Flow,TempC,AccX,AccY,AccZ
1408652,0,0.00,29.3,335,393,365
1408822,0,0.00,29.3,335,393,365
1408992,0,0.00,29.3,335,393,365
1409189,0,0.00,29.3,336,392,366
1409323,0,0.00,29.2,335,393,365
1409514,0,0.00,29.3,335,392,366
1409681,0,0.00,29.3,335,393,365
1409818,0,0.00,29.4,335,393,365
1409981,0,0.00,29.3,335,393,366
1410151,0,0.00,29.3,336,393,365
1410296,0,0.00,29.3,335,393,365
1410476,0,0.00,29.3,335,392,366
1410615,0,0.00,29.3,335,393,365
1410759,0,0.00,29.3,335,392,365
1410910,0,0.00,29.3,335,392,365
1411075,0,0.00,29.3,335,393,365
1411244,0,0.00,29.3,335,392,365
1411420,0,0.00,29.3,335,392,366
1411630,0,0.00,29.3,335,393,365
1411754,0,0.00,29.3,335,393,365
1411889,0,0.00,29.3,335,392,366
1411915,0,0.00,29.3,335,393,365
1411829,0,0.00,29.3,334,392,364
1411824,0,0.00,29.4,335,392,366
1412171,0,0.00,29.3,335,393,365
1412467,0,0.00,29.3,335,393,366
1412473,0,0.00,-50.9,153,56,58
1412359,0,0.00,-273.1,70,0,0
1412924,0,0.00,-273.1,64,0,0
1412825,0,0.00,-273.1,30,0,0
1413461,0,0.00,-273.1,33,0,0
1413626,0,0.00,-15.2,170,181,181
1413910,0,0.00,29.3,460,371,408
1414001,0,0.00,-47.8,139,74,78
693933161,0,0.00,29.3,461,382,360
1414423,0,0.00,29.3,480,391,364
1414577,0,0.00,29.2,473,375,386
1414677,0,0.00,29.2,376,362,376
1414793,0,0.00,29.2,469,360,360
1414639,0,0.00,29.2,415,384,371
1414763,0,0.00,29.2,336,392,367
0.00System Initializing...
Keep airflow OFF and system STILL for calibration...
System Initializing...
Keep airflow OFF and system STILL for calibration...


